rt,stimulus,response,trial_type,trial_index,plugin_version,time_elapsed,subj_code,success,question_order,task,correct_response,congruency,name,correct,slider_start,feedback_type,feedback,prev_feedback,prev_loss,prev_correct,prev_congruency,block_feedback_type,all_accuracy
574.0,<span style='font-size: 35px;'>bal</span>,f,html-keyboard-response,321,2.1.0,409907,Mchoho,,,probe,f,congruent,horizontal_con_1,1,,,,neutral,0,1,incongruent,random_punishment_random,0.9258333333333332
594.0,<span style='font-size: 35px;'>fel</span>,j,html-keyboard-response,326,2.1.0,412001,Mchoho,,,probe,j,congruent,vertical_con_2,1,,,,neutral,0,1,congruent,random_punishment_random,0.9258333333333332
482.0,<span style='font-size: 35px;'>bal</span>,f,html-keyboard-response,331,2.1.0,413898,Mchoho,,,probe,f,congruent,horizontal_con_1,1,,,,neutral,0,1,congruent,random_punishment_random,0.9258333333333332
713.0,<span style='font-size: 35px;'>fel</span>,j,html-keyboard-response,336,2.1.0,416077,Mchoho,,,probe,j,incongruent,vertical_incon_2,1,,,,monetary_loss,1,1,congruent,random_punishment_random,0.9258333333333332
793.0,<span style='font-size: 35px;'>jobb</span>,g,html-keyboard-response,341,2.1.0,418286,Mchoho,,,probe,g,congruent,horizontal_con_2,1,,,,neutral,0,1,incongruent,random_punishment_random,0.9258333333333332
509.0,<span style='font-size: 35px;'>fel</span>,j,html-keyboard-response,346,2.1.0,420270,Mchoho,,,probe,j,incongruent,vertical_incon_2,1,,,,neutral,0,1,congruent,random_punishment_random,0.9258333333333332
,<span style='font-size: 35px;'>jobb</span>,,html-keyboard-response,351,2.1.0,422792,Mchoho,,,probe,g,incongruent,horizontal_incon_1,0,,,,monetary_loss,1,1,incongruent,random_punishment_random,0.9258333333333332
607.0,<span style='font-size: 35px;'>le</span>,n,html-keyboard-response,356,2.1.0,424825,Mchoho,,,probe,n,incongruent,vertical_incon_1,1,,,,neutral,0,0,incongruent,random_punishment_random,0.9258333333333332
605.0,<span style='font-size: 35px;'>bal</span>,f,html-keyboard-response,361,2.1.0,426763,Mchoho,,,probe,f,incongruent,horizontal_incon_2,1,,,,neutral,0,1,incongruent,random_punishment_random,0.9258333333333332
460.0,<span style='font-size: 35px;'>fel</span>,j,html-keyboard-response,366,2.1.0,428554,Mchoho,,,probe,j,congruent,vertical_con_2,1,,,,neutral,0,1,incongruent,random_punishment_random,0.9258333333333332
767.0,<span style='font-size: 35px;'>jobb</span>,g,html-keyboard-response,371,2.1.0,430721,Mchoho,,,probe,g,congruent,horizontal_con_2,1,,,,monetary_loss,1,1,congruent,random_punishment_random,0.9258333333333332
577.0,<span style='font-size: 35px;'>le</span>,n,html-keyboard-response,376,2.1.0,432751,Mchoho,,,probe,n,incongruent,vertical_incon_1,1,,,,neutral,0,1,congruent,random_punishment_random,0.9258333333333332
470.0,<span style='font-size: 35px;'>jobb</span>,g,html-keyboard-response,381,2.1.0,434587,Mchoho,,,probe,g,congruent,horizontal_con_2,1,,,,neutral,0,1,incongruent,random_punishment_random,0.9258333333333332
450.0,<span style='font-size: 35px;'>le</span>,n,html-keyboard-response,386,2.1.0,436359,Mchoho,,,probe,n,congruent,vertical_con_1,1,,,,monetary_loss,1,1,congruent,random_punishment_random,0.9258333333333332
428.0,<span style='font-size: 35px;'>jobb</span>,g,html-keyboard-response,391,2.1.0,438128,Mchoho,,,probe,g,congruent,horizontal_con_2,1,,,,neutral,0,1,congruent,random_punishment_random,0.9258333333333332
412.0,<span style='font-size: 35px;'>le</span>,n,html-keyboard-response,396,2.1.0,439949,Mchoho,,,probe,n,congruent,vertical_con_1,1,,,,neutral,0,1,congruent,random_punishment_random,0.9258333333333332
568.0,<span style='font-size: 35px;'>bal</span>,f,html-keyboard-response,401,2.1.0,441824,Mchoho,,,probe,f,incongruent,horizontal_incon_2,1,,,,monetary_loss,1,1,congruent,random_punishment_random,0.9258333333333332
797.0,<span style='font-size: 35px;'>fel</span>,j,html-keyboard-response,406,2.1.0,444115,Mchoho,,,probe,j,congruent,vertical_con_2,1,,,,monetary_loss,1,1,incongruent,random_punishment_random,0.9258333333333332
670.0,<span style='font-size: 35px;'>jobb</span>,g,html-keyboard-response,411,2.1.0,446244,Mchoho,,,probe,g,congruent,horizontal_con_2,1,,,,monetary_loss,1,1,congruent,random_punishment_random,0.9258333333333332
500.0,<span style='font-size: 35px;'>fel</span>,j,html-keyboard-response,416,2.1.0,448230,Mchoho,,,probe,j,congruent,vertical_con_2,1,,,,neutral,0,1,congruent,random_punishment_random,0.9258333333333332
670.0,<span style='font-size: 35px;'>bal</span>,f,html-keyboard-response,421,2.1.0,450237,Mchoho,,,probe,f,congruent,horizontal_con_1,1,,,,neutral,0,1,congruent,random_punishment_random,0.9258333333333332
476.0,<span style='font-size: 35px;'>fel</span>,j,html-keyboard-response,426,2.1.0,452069,Mchoho,,,probe,j,congruent,vertical_con_2,1,,,,neutral,0,1,congruent,random_punishment_random,0.9258333333333332
666.0,<span style='font-size: 35px;'>bal</span>,f,html-keyboard-response,431,2.1.0,454189,Mchoho,,,probe,f,incongruent,horizontal_incon_2,1,,,,neutral,0,1,congruent,random_punishment_random,0.9258333333333332
678.0,<span style='font-size: 35px;'>le</span>,n,html-keyboard-response,436,2.1.0,456236,Mchoho,,,probe,n,incongruent,vertical_incon_1,1,,,,neutral,0,1,incongruent,random_punishment_random,0.9258333333333332
515.0,<span style='font-size: 35px;'>jobb</span>,g,html-keyboard-response,441,2.1.0,458145,Mchoho,,,probe,g,congruent,horizontal_con_2,1,,,,neutral,0,1,incongruent,random_punishment_random,0.9258333333333332
799.0,<span style='font-size: 35px;'>fel</span>,j,html-keyboard-response,446,2.1.0,460459,Mchoho,,,probe,j,incongruent,vertical_incon_2,1,,,,neutral,0,1,congruent,random_punishment_random,0.9258333333333332
804.0,<span style='font-size: 35px;'>jobb</span>,g,html-keyboard-response,451,2.1.0,462670,Mchoho,,,probe,g,incongruent,horizontal_incon_1,1,,,,neutral,0,1,incongruent,random_punishment_random,0.9258333333333332
647.0,<span style='font-size: 35px;'>fel</span>,j,html-keyboard-response,456,2.1.0,464711,Mchoho,,,probe,j,incongruent,vertical_incon_2,1,,,,neutral,0,1,incongruent,random_punishment_random,0.9258333333333332
766.0,<span style='font-size: 35px;'>bal</span>,f,html-keyboard-response,461,2.1.0,466941,Mchoho,,,probe,f,incongruent,horizontal_incon_2,1,,,,neutral,0,1,incongruent,random_punishment_random,0.9258333333333332
587.0,<span style='font-size: 35px;'>fel</span>,j,html-keyboard-response,466,2.1.0,468892,Mchoho,,,probe,j,incongruent,vertical_incon_2,1,,,,neutral,0,1,incongruent,random_punishment_random,0.9258333333333332
664.0,<span style='font-size: 35px;'>jobb</span>,g,html-keyboard-response,471,2.1.0,470936,Mchoho,,,probe,g,congruent,horizontal_con_2,1,,,,neutral,0,1,incongruent,random_punishment_random,0.9258333333333332
865.0,<span style='font-size: 35px;'>fel</span>,j,html-keyboard-response,476,2.1.0,473117,Mchoho,,,probe,j,incongruent,vertical_incon_2,1,,,,monetary_loss,1,1,congruent,random_punishment_random,0.9258333333333332
649.0,<span style='font-size: 35px;'>bal</span>,f,html-keyboard-response,481,2.1.0,475145,Mchoho,,,probe,f,congruent,horizontal_con_1,1,,,,neutral,0,1,incongruent,random_punishment_random,0.9258333333333332
724.0,<span style='font-size: 35px;'>fel</span>,j,html-keyboard-response,486,2.1.0,477240,Mchoho,,,probe,j,incongruent,vertical_incon_2,1,,,,neutral,0,1,congruent,random_punishment_random,0.9258333333333332
729.0,<span style='font-size: 35px;'>jobb</span>,g,html-keyboard-response,491,2.1.0,479297,Mchoho,,,probe,g,incongruent,horizontal_incon_1,1,,,,neutral,0,1,incongruent,random_punishment_random,0.9258333333333332
508.0,<span style='font-size: 35px;'>le</span>,n,html-keyboard-response,496,2.1.0,481132,Mchoho,,,probe,n,incongruent,vertical_incon_1,1,,,,neutral,0,1,incongruent,random_punishment_random,0.9258333333333332
604.0,<span style='font-size: 35px;'>bal</span>,f,html-keyboard-response,501,2.1.0,483081,Mchoho,,,probe,f,incongruent,horizontal_incon_2,1,,,,neutral,0,1,incongruent,random_punishment_random,0.9258333333333332
597.0,<span style='font-size: 35px;'>le</span>,n,html-keyboard-response,506,2.1.0,485069,Mchoho,,,probe,n,incongruent,vertical_incon_1,1,,,,monetary_loss,1,1,incongruent,random_punishment_random,0.9258333333333332
571.0,<span style='font-size: 35px;'>bal</span>,f,html-keyboard-response,511,2.1.0,487101,Mchoho,,,probe,f,congruent,horizontal_con_1,1,,,,neutral,0,1,incongruent,random_punishment_random,0.9258333333333332
645.0,<span style='font-size: 35px;'>le</span>,n,html-keyboard-response,516,2.1.0,489083,Mchoho,,,probe,n,incongruent,vertical_incon_1,1,,,,monetary_loss,1,1,congruent,random_punishment_random,0.9258333333333332
560.0,<span style='font-size: 35px;'>jobb</span>,g,html-keyboard-response,521,2.1.0,491083,Mchoho,,,probe,g,incongruent,horizontal_incon_1,1,,,,neutral,0,1,incongruent,random_punishment_random,0.9258333333333332
448.0,<span style='font-size: 35px;'>fel</span>,j,html-keyboard-response,526,2.1.0,493015,Mchoho,,,probe,j,congruent,vertical_con_2,1,,,,neutral,0,1,incongruent,random_punishment_random,0.9258333333333332
619.0,<span style='font-size: 35px;'>bal</span>,f,html-keyboard-response,531,2.1.0,495133,Mchoho,,,probe,f,congruent,horizontal_con_1,1,,,,neutral,0,1,congruent,random_punishment_random,0.9258333333333332
436.0,<span style='font-size: 35px;'>le</span>,n,html-keyboard-response,536,2.1.0,496950,Mchoho,,,probe,n,congruent,vertical_con_1,1,,,,neutral,0,1,congruent,random_punishment_random,0.9258333333333332
756.0,<span style='font-size: 35px;'>bal</span>,f,html-keyboard-response,541,2.1.0,499044,Mchoho,,,probe,f,incongruent,horizontal_incon_2,1,,,,neutral,0,1,congruent,random_punishment_random,0.9258333333333332
496.0,<span style='font-size: 35px;'>le</span>,n,html-keyboard-response,546,2.1.0,500931,Mchoho,,,probe,n,congruent,vertical_con_1,1,,,,monetary_loss,1,1,incongruent,random_punishment_random,0.9258333333333332
674.0,<span style='font-size: 35px;'>jobb</span>,g,html-keyboard-response,551,2.1.0,503102,Mchoho,,,probe,g,incongruent,horizontal_incon_1,1,,,,neutral,0,1,congruent,random_punishment_random,0.9258333333333332
768.0,<span style='font-size: 35px;'>fel</span>,j,html-keyboard-response,556,2.1.0,505195,Mchoho,,,probe,j,congruent,vertical_con_2,1,,,,neutral,0,1,incongruent,random_punishment_random,0.9258333333333332
438.0,<span style='font-size: 35px;'>jobb</span>,g,html-keyboard-response,561,2.1.0,507046,Mchoho,,,probe,g,congruent,horizontal_con_2,1,,,,neutral,0,1,congruent,random_punishment_random,0.9258333333333332
599.0,<span style='font-size: 35px;'>le</span>,n,html-keyboard-response,566,2.1.0,508974,Mchoho,,,probe,n,incongruent,vertical_incon_1,1,,,,monetary_loss,1,1,congruent,random_punishment_random,0.9258333333333332
549.0,<span style='font-size: 35px;'>jobb</span>,g,html-keyboard-response,571,2.1.0,510974,Mchoho,,,probe,g,congruent,horizontal_con_2,1,,,,neutral,0,1,incongruent,random_punishment_random,0.9258333333333332
478.0,<span style='font-size: 35px;'>fel</span>,j,html-keyboard-response,576,2.1.0,512871,Mchoho,,,probe,j,incongruent,vertical_incon_2,1,,,,neutral,0,1,congruent,random_punishment_random,0.9258333333333332
817.0,<span style='font-size: 35px;'>jobb</span>,n,html-keyboard-response,581,2.1.0,515157,Mchoho,,,probe,g,incongruent,horizontal_incon_1,0,,,,monetary_loss,1,1,incongruent,random_punishment_random,0.9258333333333332
813.0,<span style='font-size: 35px;'>le</span>,n,html-keyboard-response,586,2.1.0,517454,Mchoho,,,probe,n,incongruent,vertical_incon_1,1,,,,neutral,0,0,incongruent,random_punishment_random,0.9258333333333332
594.0,<span style='font-size: 35px;'>jobb</span>,g,html-keyboard-response,591,2.1.0,519363,Mchoho,,,probe,g,incongruent,horizontal_incon_1,1,,,,neutral,0,1,incongruent,random_punishment_random,0.9258333333333332
761.0,<span style='font-size: 35px;'>le</span>,n,html-keyboard-response,596,2.1.0,521482,Mchoho,,,probe,n,incongruent,vertical_incon_1,1,,,,neutral,0,1,incongruent,random_punishment_random,0.9258333333333332
807.0,<span style='font-size: 35px;'>jobb</span>,j,html-keyboard-response,601,2.1.0,523600,Mchoho,,,probe,g,incongruent,horizontal_incon_1,0,,,,neutral,0,1,incongruent,random_punishment_random,0.9258333333333332
559.0,<span style='font-size: 35px;'>fel</span>,j,html-keyboard-response,606,2.1.0,525499,Mchoho,,,probe,j,congruent,vertical_con_2,1,,,,monetary_loss,1,0,incongruent,random_punishment_random,0.9258333333333332
719.0,<span style='font-size: 35px;'>jobb</span>,g,html-keyboard-response,611,2.1.0,527539,Mchoho,,,probe,g,incongruent,horizontal_incon_1,1,,,,neutral,0,1,congruent,random_punishment_random,0.9258333333333332
683.0,<span style='font-size: 35px;'>le</span>,n,html-keyboard-response,616,2.1.0,529579,Mchoho,,,probe,n,congruent,vertical_con_1,1,,,,monetary_loss,1,1,incongruent,random_punishment_random,0.9258333333333332
654.0,<span style='font-size: 35px;'>bal</span>,f,html-keyboard-response,621,2.1.0,531561,Mchoho,,,probe,f,incongruent,horizontal_incon_2,1,,,,neutral,0,1,congruent,random_punishment_random,0.9258333333333332
551.0,<span style='font-size: 35px;'>le</span>,n,html-keyboard-response,626,2.1.0,533459,Mchoho,,,probe,n,incongruent,vertical_incon_1,1,,,,monetary_loss,1,1,incongruent,random_punishment_random,0.9258333333333332
475.0,<span style='font-size: 35px;'>bal</span>,g,html-keyboard-response,631,2.1.0,535379,Mchoho,,,probe,f,congruent,horizontal_con_1,0,,,,neutral,0,1,incongruent,random_punishment_random,0.9258333333333332
990.0,<span style='font-size: 35px;'>fel</span>,j,html-keyboard-response,636,2.1.0,537801,Mchoho,,,probe,j,incongruent,vertical_incon_2,1,,,,monetary_loss,1,0,congruent,random_punishment_random,0.9258333333333332
755.0,<span style='font-size: 35px;'>bal</span>,g,html-keyboard-response,641,2.1.0,539948,Mchoho,,,probe,f,incongruent,horizontal_incon_2,0,,,,neutral,0,1,incongruent,random_punishment_random,0.9258333333333332
446.0,<span style='font-size: 35px;'>le</span>,n,html-keyboard-response,646,2.1.0,541798,Mchoho,,,probe,n,congruent,vertical_con_1,1,,,,neutral,0,0,incongruent,random_punishment_random,0.9258333333333332
557.0,<span style='font-size: 35px;'>bal</span>,f,html-keyboard-response,651,2.1.0,543741,Mchoho,,,probe,f,congruent,horizontal_con_1,1,,,,monetary_loss,1,1,congruent,random_punishment_random,0.9258333333333332
547.0,<span style='font-size: 35px;'>fel</span>,j,html-keyboard-response,656,2.1.0,545587,Mchoho,,,probe,j,incongruent,vertical_incon_2,1,,,,neutral,0,1,congruent,random_punishment_random,0.9258333333333332
608.0,<span style='font-size: 35px;'>jobb</span>,f,html-keyboard-response,661,2.1.0,547513,Mchoho,,,probe,g,congruent,horizontal_con_2,0,,,,neutral,0,1,incongruent,random_punishment_random,0.9258333333333332
670.0,<span style='font-size: 35px;'>fel</span>,j,html-keyboard-response,666,2.1.0,549566,Mchoho,,,probe,j,incongruent,vertical_incon_2,1,,,,neutral,0,0,congruent,random_punishment_random,0.9258333333333332
848.0,<span style='font-size: 35px;'>jobb</span>,g,html-keyboard-response,671,2.1.0,551908,Mchoho,,,probe,g,congruent,horizontal_con_2,1,,,,neutral,0,1,incongruent,random_punishment_random,0.9258333333333332
592.0,<span style='font-size: 35px;'>le</span>,n,html-keyboard-response,676,2.1.0,553980,Mchoho,,,probe,n,incongruent,vertical_incon_1,1,,,,neutral,0,1,congruent,random_punishment_random,0.9258333333333332
475.0,<span style='font-size: 35px;'>bal</span>,f,html-keyboard-response,681,2.1.0,555814,Mchoho,,,probe,f,congruent,horizontal_con_1,1,,,,neutral,0,1,incongruent,random_punishment_random,0.9258333333333332
424.0,<span style='font-size: 35px;'>fel</span>,j,html-keyboard-response,686,2.1.0,557616,Mchoho,,,probe,j,congruent,vertical_con_2,1,,,,neutral,0,1,congruent,random_punishment_random,0.9258333333333332
539.0,<span style='font-size: 35px;'>bal</span>,f,html-keyboard-response,691,2.1.0,559503,Mchoho,,,probe,f,congruent,horizontal_con_1,1,,,,monetary_loss,1,1,congruent,random_punishment_random,0.9258333333333332
410.0,<span style='font-size: 35px;'>le</span>,n,html-keyboard-response,696,2.1.0,561240,Mchoho,,,probe,n,congruent,vertical_con_1,1,,,,monetary_loss,1,1,congruent,random_punishment_random,0.9258333333333332
564.0,<span style='font-size: 35px;'>bal</span>,f,html-keyboard-response,701,2.1.0,563215,Mchoho,,,probe,f,congruent,horizontal_con_1,1,,,,neutral,0,1,congruent,random_punishment_random,0.9258333333333332
755.0,<span style='font-size: 35px;'>fel</span>,j,html-keyboard-response,706,2.1.0,565398,Mchoho,,,probe,j,congruent,vertical_con_2,1,,,,monetary_loss,1,1,congruent,random_punishment_random,0.9258333333333332
719.0,<span style='font-size: 35px;'>bal</span>,f,html-keyboard-response,711,2.1.0,567554,Mchoho,,,probe,f,congruent,horizontal_con_1,1,,,,monetary_loss,1,1,congruent,random_punishment_random,0.9258333333333332
693.0,<span style='font-size: 35px;'>le</span>,n,html-keyboard-response,716,2.1.0,569553,Mchoho,,,probe,n,incongruent,vertical_incon_1,1,,,,neutral,0,1,congruent,random_punishment_random,0.9258333333333332
467.0,<span style='font-size: 35px;'>bal</span>,f,html-keyboard-response,727,2.1.0,700944,Mchoho,,,probe,f,congruent,horizontal_con_1,1,,,,neutral,0,1,incongruent,random_punishment_random,0.9258333333333332
450.0,<span style='font-size: 35px;'>fel</span>,j,html-keyboard-response,732,2.1.0,702804,Mchoho,,,probe,j,congruent,vertical_con_2,1,,,,neutral,0,1,congruent,random_punishment_random,0.9258333333333332
449.0,<span style='font-size: 35px;'>bal</span>,f,html-keyboard-response,737,2.1.0,704597,Mchoho,,,probe,f,congruent,horizontal_con_1,1,,,,neutral,0,1,congruent,random_punishment_random,0.9258333333333332
595.0,<span style='font-size: 35px;'>fel</span>,n,html-keyboard-response,742,2.1.0,706506,Mchoho,,,probe,j,incongruent,vertical_incon_2,0,,,,monetary_loss,1,1,congruent,random_punishment_random,0.9258333333333332
432.0,<span style='font-size: 35px;'>jobb</span>,g,html-keyboard-response,747,2.1.0,708278,Mchoho,,,probe,g,congruent,horizontal_con_2,1,,,,neutral,0,0,incongruent,random_punishment_random,0.9258333333333332
489.0,<span style='font-size: 35px;'>fel</span>,j,html-keyboard-response,752,2.1.0,710072,Mchoho,,,probe,j,incongruent,vertical_incon_2,1,,,,monetary_loss,1,1,congruent,random_punishment_random,0.9258333333333332
753.0,<span style='font-size: 35px;'>jobb</span>,g,html-keyboard-response,757,2.1.0,712222,Mchoho,,,probe,g,incongruent,horizontal_incon_1,1,,,,neutral,0,1,incongruent,random_punishment_random,0.9258333333333332
524.0,<span style='font-size: 35px;'>le</span>,n,html-keyboard-response,762,2.1.0,714141,Mchoho,,,probe,n,incongruent,vertical_incon_1,1,,,,neutral,0,1,incongruent,random_punishment_random,0.9258333333333332
574.0,<span style='font-size: 35px;'>bal</span>,f,html-keyboard-response,767,2.1.0,716105,Mchoho,,,probe,f,incongruent,horizontal_incon_2,1,,,,neutral,0,1,incongruent,random_punishment_random,0.9258333333333332
406.0,<span style='font-size: 35px;'>fel</span>,j,html-keyboard-response,772,2.1.0,718000,Mchoho,,,probe,j,congruent,vertical_con_2,1,,,,monetary_loss,1,1,incongruent,random_punishment_random,0.9258333333333332
405.0,<span style='font-size: 35px;'>jobb</span>,g,html-keyboard-response,777,2.1.0,719743,Mchoho,,,probe,g,congruent,horizontal_con_2,1,,,,neutral,0,1,congruent,random_punishment_random,0.9258333333333332
485.0,<span style='font-size: 35px;'>le</span>,n,html-keyboard-response,782,2.1.0,721689,Mchoho,,,probe,n,incongruent,vertical_incon_1,1,,,,neutral,0,1,congruent,random_punishment_random,0.9258333333333332
529.0,<span style='font-size: 35px;'>jobb</span>,g,html-keyboard-response,787,2.1.0,723559,Mchoho,,,probe,g,congruent,horizontal_con_2,1,,,,monetary_loss,1,1,incongruent,random_punishment_random,0.9258333333333332
482.0,<span style='font-size: 35px;'>le</span>,n,html-keyboard-response,792,2.1.0,725462,Mchoho,,,probe,n,congruent,vertical_con_1,1,,,,neutral,0,1,congruent,random_punishment_random,0.9258333333333332
415.0,<span style='font-size: 35px;'>jobb</span>,g,html-keyboard-response,797,2.1.0,727273,Mchoho,,,probe,g,congruent,horizontal_con_2,1,,,,monetary_loss,1,1,congruent,random_punishment_random,0.9258333333333332
544.0,<span style='font-size: 35px;'>le</span>,j,html-keyboard-response,802,2.1.0,729160,Mchoho,,,probe,n,congruent,vertical_con_1,0,,,,neutral,0,1,congruent,random_punishment_random,0.9258333333333332
838.0,<span style='font-size: 35px;'>bal</span>,f,html-keyboard-response,807,2.1.0,731461,Mchoho,,,probe,f,incongruent,horizontal_incon_2,1,,,,neutral,0,0,congruent,random_punishment_random,0.9258333333333332
509.0,<span style='font-size: 35px;'>fel</span>,j,html-keyboard-response,812,2.1.0,733419,Mchoho,,,probe,j,congruent,vertical_con_2,1,,,,monetary_loss,1,1,incongruent,random_punishment_random,0.9258333333333332
412.0,<span style='font-size: 35px;'>jobb</span>,g,html-keyboard-response,817,2.1.0,735227,Mchoho,,,probe,g,congruent,horizontal_con_2,1,,,,neutral,0,1,congruent,random_punishment_random,0.9258333333333332
535.0,<span style='font-size: 35px;'>fel</span>,j,html-keyboard-response,822,2.1.0,737113,Mchoho,,,probe,j,congruent,vertical_con_2,1,,,,neutral,0,1,congruent,random_punishment_random,0.9258333333333332
552.0,<span style='font-size: 35px;'>bal</span>,f,html-keyboard-response,827,2.1.0,739111,Mchoho,,,probe,f,congruent,horizontal_con_1,1,,,,neutral,0,1,congruent,random_punishment_random,0.9258333333333332
639.0,<span style='font-size: 35px;'>fel</span>,j,html-keyboard-response,832,2.1.0,741056,Mchoho,,,probe,j,congruent,vertical_con_2,1,,,,neutral,0,1,congruent,random_punishment_random,0.9258333333333332
709.0,<span style='font-size: 35px;'>bal</span>,f,html-keyboard-response,837,2.1.0,743258,Mchoho,,,probe,f,incongruent,horizontal_incon_2,1,,,,monetary_loss,1,1,congruent,random_punishment_random,0.9258333333333332
409.0,<span style='font-size: 35px;'>le</span>,j,html-keyboard-response,842,2.1.0,745069,Mchoho,,,probe,n,incongruent,vertical_incon_1,0,,,,neutral,0,1,incongruent,random_punishment_random,0.9258333333333332
463.0,<span style='font-size: 35px;'>jobb</span>,g,html-keyboard-response,847,2.1.0,746905,Mchoho,,,probe,g,congruent,horizontal_con_2,1,,,,neutral,0,0,incongruent,random_punishment_random,0.9258333333333332
,<span style='font-size: 35px;'>fel</span>,,html-keyboard-response,852,2.1.0,749215,Mchoho,,,probe,j,incongruent,vertical_incon_2,0,,,,neutral,0,1,congruent,random_punishment_random,0.9258333333333332
647.0,<span style='font-size: 35px;'>jobb</span>,g,html-keyboard-response,857,2.1.0,751192,Mchoho,,,probe,g,incongruent,horizontal_incon_1,1,,,,neutral,0,0,incongruent,random_punishment_random,0.9258333333333332
502.0,<span style='font-size: 35px;'>fel</span>,j,html-keyboard-response,862,2.1.0,753139,Mchoho,,,probe,j,incongruent,vertical_incon_2,1,,,,monetary_loss,1,1,incongruent,random_punishment_random,0.9258333333333332
623.0,<span style='font-size: 35px;'>bal</span>,f,html-keyboard-response,867,2.1.0,755159,Mchoho,,,probe,f,incongruent,horizontal_incon_2,1,,,,monetary_loss,1,1,incongruent,random_punishment_random,0.9258333333333332
643.0,<span style='font-size: 35px;'>fel</span>,j,html-keyboard-response,872,2.1.0,757300,Mchoho,,,probe,j,incongruent,vertical_incon_2,1,,,,neutral,0,1,incongruent,random_punishment_random,0.9258333333333332
488.0,<span style='font-size: 35px;'>jobb</span>,g,html-keyboard-response,877,2.1.0,759290,Mchoho,,,probe,g,congruent,horizontal_con_2,1,,,,neutral,0,1,incongruent,random_punishment_random,0.9258333333333332
550.0,<span style='font-size: 35px;'>fel</span>,j,html-keyboard-response,882,2.1.0,761307,Mchoho,,,probe,j,incongruent,vertical_incon_2,1,,,,neutral,0,1,congruent,random_punishment_random,0.9258333333333332
442.0,<span style='font-size: 35px;'>bal</span>,f,html-keyboard-response,887,2.1.0,763217,Mchoho,,,probe,f,congruent,horizontal_con_1,1,,,,neutral,0,1,incongruent,random_punishment_random,0.9258333333333332
650.0,<span style='font-size: 35px;'>fel</span>,j,html-keyboard-response,892,2.1.0,765260,Mchoho,,,probe,j,incongruent,vertical_incon_2,1,,,,neutral,0,1,congruent,random_punishment_random,0.9258333333333332
688.0,<span style='font-size: 35px;'>jobb</span>,g,html-keyboard-response,897,2.1.0,767414,Mchoho,,,probe,g,incongruent,horizontal_incon_1,1,,,,neutral,0,1,incongruent,random_punishment_random,0.9258333333333332
575.0,<span style='font-size: 35px;'>le</span>,n,html-keyboard-response,902,2.1.0,769362,Mchoho,,,probe,n,incongruent,vertical_incon_1,1,,,,monetary_loss,1,1,incongruent,random_punishment_random,0.9258333333333332
663.0,<span style='font-size: 35px;'>bal</span>,f,html-keyboard-response,907,2.1.0,771376,Mchoho,,,probe,f,incongruent,horizontal_incon_2,1,,,,neutral,0,1,incongruent,random_punishment_random,0.9258333333333332
658.0,<span style='font-size: 35px;'>le</span>,n,html-keyboard-response,912,2.1.0,773446,Mchoho,,,probe,n,incongruent,vertical_incon_1,1,,,,neutral,0,1,incongruent,random_punishment_random,0.9258333333333332
594.0,<span style='font-size: 35px;'>bal</span>,f,html-keyboard-response,917,2.1.0,775430,Mchoho,,,probe,f,congruent,horizontal_con_1,1,,,,monetary_loss,1,1,incongruent,random_punishment_random,0.9258333333333332
556.0,<span style='font-size: 35px;'>le</span>,n,html-keyboard-response,922,2.1.0,777446,Mchoho,,,probe,n,incongruent,vertical_incon_1,1,,,,neutral,0,1,congruent,random_punishment_random,0.9258333333333332
682.0,<span style='font-size: 35px;'>jobb</span>,g,html-keyboard-response,927,2.1.0,779637,Mchoho,,,probe,g,incongruent,horizontal_incon_1,1,,,,neutral,0,1,incongruent,random_punishment_random,0.9258333333333332
435.0,<span style='font-size: 35px;'>fel</span>,j,html-keyboard-response,932,2.1.0,781535,Mchoho,,,probe,j,congruent,vertical_con_2,1,,,,neutral,0,1,incongruent,random_punishment_random,0.9258333333333332
419.0,<span style='font-size: 35px;'>bal</span>,f,html-keyboard-response,937,2.1.0,783311,Mchoho,,,probe,f,congruent,horizontal_con_1,1,,,,neutral,0,1,congruent,random_punishment_random,0.9258333333333332
390.0,<span style='font-size: 35px;'>le</span>,n,html-keyboard-response,942,2.1.0,785043,Mchoho,,,probe,n,congruent,vertical_con_1,1,,,,neutral,0,1,congruent,random_punishment_random,0.9258333333333332
588.0,<span style='font-size: 35px;'>bal</span>,f,html-keyboard-response,947,2.1.0,787042,Mchoho,,,probe,f,incongruent,horizontal_incon_2,1,,,,neutral,0,1,congruent,random_punishment_random,0.9258333333333332
388.0,<span style='font-size: 35px;'>le</span>,n,html-keyboard-response,952,2.1.0,788841,Mchoho,,,probe,n,congruent,vertical_con_1,1,,,,monetary_loss,1,1,incongruent,random_punishment_random,0.9258333333333332
754.0,<span style='font-size: 35px;'>jobb</span>,g,html-keyboard-response,957,2.1.0,791032,Mchoho,,,probe,g,incongruent,horizontal_incon_1,1,,,,monetary_loss,1,1,congruent,random_punishment_random,0.9258333333333332
678.0,<span style='font-size: 35px;'>fel</span>,j,html-keyboard-response,962,2.1.0,793177,Mchoho,,,probe,j,congruent,vertical_con_2,1,,,,monetary_loss,1,1,incongruent,random_punishment_random,0.9258333333333332
482.0,<span style='font-size: 35px;'>jobb</span>,g,html-keyboard-response,967,2.1.0,795095,Mchoho,,,probe,g,congruent,horizontal_con_2,1,,,,neutral,0,1,congruent,random_punishment_random,0.9258333333333332
525.0,<span style='font-size: 35px;'>le</span>,n,html-keyboard-response,972,2.1.0,797101,Mchoho,,,probe,n,incongruent,vertical_incon_1,1,,,,neutral,0,1,congruent,random_punishment_random,0.9258333333333332
518.0,<span style='font-size: 35px;'>jobb</span>,g,html-keyboard-response,977,2.1.0,799116,Mchoho,,,probe,g,congruent,horizontal_con_2,1,,,,neutral,0,1,incongruent,random_punishment_random,0.9258333333333332
658.0,<span style='font-size: 35px;'>fel</span>,j,html-keyboard-response,982,2.1.0,801228,Mchoho,,,probe,j,incongruent,vertical_incon_2,1,,,,neutral,0,1,congruent,random_punishment_random,0.9258333333333332
728.0,<span style='font-size: 35px;'>jobb</span>,g,html-keyboard-response,987,2.1.0,803292,Mchoho,,,probe,g,incongruent,horizontal_incon_1,1,,,,neutral,0,1,incongruent,random_punishment_random,0.9258333333333332
626.0,<span style='font-size: 35px;'>le</span>,n,html-keyboard-response,992,2.1.0,805297,Mchoho,,,probe,n,incongruent,vertical_incon_1,1,,,,neutral,0,1,incongruent,random_punishment_random,0.9258333333333332
642.0,<span style='font-size: 35px;'>jobb</span>,g,html-keyboard-response,997,2.1.0,807418,Mchoho,,,probe,g,incongruent,horizontal_incon_1,1,,,,monetary_loss,1,1,incongruent,random_punishment_random,0.9258333333333332
676.0,<span style='font-size: 35px;'>le</span>,n,html-keyboard-response,1002,2.1.0,809587,Mchoho,,,probe,n,incongruent,vertical_incon_1,1,,,,monetary_loss,1,1,incongruent,random_punishment_random,0.9258333333333332
672.0,<span style='font-size: 35px;'>jobb</span>,g,html-keyboard-response,1007,2.1.0,811587,Mchoho,,,probe,g,incongruent,horizontal_incon_1,1,,,,monetary_loss,1,1,incongruent,random_punishment_random,0.9258333333333332
647.0,<span style='font-size: 35px;'>fel</span>,j,html-keyboard-response,1012,2.1.0,813745,Mchoho,,,probe,j,congruent,vertical_con_2,1,,,,neutral,0,1,incongruent,random_punishment_random,0.9258333333333332
738.0,<span style='font-size: 35px;'>jobb</span>,g,html-keyboard-response,1017,2.1.0,815833,Mchoho,,,probe,g,incongruent,horizontal_incon_1,1,,,,monetary_loss,1,1,congruent,random_punishment_random,0.9258333333333332
483.0,<span style='font-size: 35px;'>le</span>,n,html-keyboard-response,1022,2.1.0,817758,Mchoho,,,probe,n,congruent,vertical_con_1,1,,,,monetary_loss,1,1,incongruent,random_punishment_random,0.9258333333333332
784.0,<span style='font-size: 35px;'>bal</span>,f,html-keyboard-response,1027,2.1.0,819999,Mchoho,,,probe,f,incongruent,horizontal_incon_2,1,,,,neutral,0,1,congruent,random_punishment_random,0.9258333333333332
650.0,<span style='font-size: 35px;'>le</span>,n,html-keyboard-response,1032,2.1.0,822092,Mchoho,,,probe,n,incongruent,vertical_incon_1,1,,,,neutral,0,1,incongruent,random_punishment_random,0.9258333333333332
817.0,<span style='font-size: 35px;'>bal</span>,f,html-keyboard-response,1037,2.1.0,824373,Mchoho,,,probe,f,congruent,horizontal_con_1,1,,,,monetary_loss,1,1,incongruent,random_punishment_random,0.9258333333333332
630.0,<span style='font-size: 35px;'>fel</span>,j,html-keyboard-response,1042,2.1.0,826422,Mchoho,,,probe,j,incongruent,vertical_incon_2,1,,,,monetary_loss,1,1,congruent,random_punishment_random,0.9258333333333332
769.0,<span style='font-size: 35px;'>bal</span>,g,html-keyboard-response,1047,2.1.0,828562,Mchoho,,,probe,f,incongruent,horizontal_incon_2,0,,,,monetary_loss,1,1,incongruent,random_punishment_random,0.9258333333333332
461.0,<span style='font-size: 35px;'>le</span>,n,html-keyboard-response,1052,2.1.0,830377,Mchoho,,,probe,n,congruent,vertical_con_1,1,,,,monetary_loss,1,0,incongruent,random_punishment_random,0.9258333333333332
836.0,<span style='font-size: 35px;'>bal</span>,f,html-keyboard-response,1057,2.1.0,832686,Mchoho,,,probe,f,congruent,horizontal_con_1,1,,,,neutral,0,1,congruent,random_punishment_random,0.9258333333333332
551.0,<span style='font-size: 35px;'>fel</span>,j,html-keyboard-response,1062,2.1.0,834568,Mchoho,,,probe,j,incongruent,vertical_incon_2,1,,,,neutral,0,1,congruent,random_punishment_random,0.9258333333333332
551.0,<span style='font-size: 35px;'>jobb</span>,g,html-keyboard-response,1067,2.1.0,836477,Mchoho,,,probe,g,congruent,horizontal_con_2,1,,,,monetary_loss,1,1,incongruent,random_punishment_random,0.9258333333333332
531.0,<span style='font-size: 35px;'>fel</span>,n,html-keyboard-response,1072,2.1.0,838370,Mchoho,,,probe,j,incongruent,vertical_incon_2,0,,,,neutral,0,1,congruent,random_punishment_random,0.9258333333333332
509.0,<span style='font-size: 35px;'>jobb</span>,g,html-keyboard-response,1077,2.1.0,840367,Mchoho,,,probe,g,congruent,horizontal_con_2,1,,,,monetary_loss,1,0,incongruent,random_punishment_random,0.9258333333333332
679.0,<span style='font-size: 35px;'>le</span>,n,html-keyboard-response,1082,2.1.0,842451,Mchoho,,,probe,n,incongruent,vertical_incon_1,1,,,,monetary_loss,1,1,congruent,random_punishment_random,0.9258333333333332
638.0,<span style='font-size: 35px;'>bal</span>,f,html-keyboard-response,1087,2.1.0,844449,Mchoho,,,probe,f,congruent,horizontal_con_1,1,,,,monetary_loss,1,1,incongruent,random_punishment_random,0.9258333333333332
631.0,<span style='font-size: 35px;'>fel</span>,j,html-keyboard-response,1092,2.1.0,846509,Mchoho,,,probe,j,congruent,vertical_con_2,1,,,,monetary_loss,1,1,congruent,random_punishment_random,0.9258333333333332
722.0,<span style='font-size: 35px;'>bal</span>,f,html-keyboard-response,1097,2.1.0,848629,Mchoho,,,probe,f,congruent,horizontal_con_1,1,,,,monetary_loss,1,1,congruent,random_punishment_random,0.9258333333333332
514.0,<span style='font-size: 35px;'>le</span>,n,html-keyboard-response,1102,2.1.0,850544,Mchoho,,,probe,n,congruent,vertical_con_1,1,,,,neutral,0,1,congruent,random_punishment_random,0.9258333333333332
542.0,<span style='font-size: 35px;'>bal</span>,f,html-keyboard-response,1107,2.1.0,852491,Mchoho,,,probe,f,congruent,horizontal_con_1,1,,,,monetary_loss,1,1,congruent,random_punishment_random,0.9258333333333332
523.0,<span style='font-size: 35px;'>fel</span>,j,html-keyboard-response,1112,2.1.0,854372,Mchoho,,,probe,j,congruent,vertical_con_2,1,,,,neutral,0,1,congruent,random_punishment_random,0.9258333333333332
478.0,<span style='font-size: 35px;'>bal</span>,f,html-keyboard-response,1117,2.1.0,856283,Mchoho,,,probe,f,congruent,horizontal_con_1,1,,,,monetary_loss,1,1,congruent,random_punishment_random,0.9258333333333332
638.0,<span style='font-size: 35px;'>le</span>,n,html-keyboard-response,1122,2.1.0,858297,Mchoho,,,probe,n,incongruent,vertical_incon_1,1,,,,neutral,0,1,congruent,random_punishment_random,0.9258333333333332
542.0,<span style='font-size: 35px;'>bal</span>,f,html-keyboard-response,1133,2.1.0,913318,Mchoho,,,probe,f,congruent,horizontal_con_1,1,,,,neutral,0,1,incongruent,random_punishment_random,0.9258333333333332
519.0,<span style='font-size: 35px;'>fel</span>,j,html-keyboard-response,1138,2.1.0,915228,Mchoho,,,probe,j,congruent,vertical_con_2,1,,,,neutral,0,1,congruent,random_punishment_random,0.9258333333333332
523.0,<span style='font-size: 35px;'>bal</span>,f,html-keyboard-response,1143,2.1.0,917089,Mchoho,,,probe,f,congruent,horizontal_con_1,1,,,,monetary_loss,1,1,congruent,random_punishment_random,0.9258333333333332
637.0,<span style='font-size: 35px;'>fel</span>,j,html-keyboard-response,1148,2.1.0,919150,Mchoho,,,probe,j,incongruent,vertical_incon_2,1,,,,monetary_loss,1,1,congruent,random_punishment_random,0.9258333333333332
653.0,<span style='font-size: 35px;'>jobb</span>,j,html-keyboard-response,1153,2.1.0,921225,Mchoho,,,probe,g,congruent,horizontal_con_2,0,,,,monetary_loss,1,1,incongruent,random_punishment_random,0.9258333333333332
661.0,<span style='font-size: 35px;'>fel</span>,j,html-keyboard-response,1158,2.1.0,923284,Mchoho,,,probe,j,incongruent,vertical_incon_2,1,,,,monetary_loss,1,0,congruent,random_punishment_random,0.9258333333333332
753.0,<span style='font-size: 35px;'>jobb</span>,g,html-keyboard-response,1163,2.1.0,925413,Mchoho,,,probe,g,incongruent,horizontal_incon_1,1,,,,monetary_loss,1,1,incongruent,random_punishment_random,0.9258333333333332
793.0,<span style='font-size: 35px;'>le</span>,n,html-keyboard-response,1168,2.1.0,927577,Mchoho,,,probe,n,incongruent,vertical_incon_1,1,,,,neutral,0,1,incongruent,random_punishment_random,0.9258333333333332
653.0,<span style='font-size: 35px;'>bal</span>,f,html-keyboard-response,1173,2.1.0,929538,Mchoho,,,probe,f,incongruent,horizontal_incon_2,1,,,,neutral,0,1,incongruent,random_punishment_random,0.9258333333333332
513.0,<span style='font-size: 35px;'>fel</span>,j,html-keyboard-response,1178,2.1.0,931494,Mchoho,,,probe,j,congruent,vertical_con_2,1,,,,neutral,0,1,incongruent,random_punishment_random,0.9258333333333332
753.0,<span style='font-size: 35px;'>jobb</span>,f,html-keyboard-response,1183,2.1.0,933571,Mchoho,,,probe,g,congruent,horizontal_con_2,0,,,,monetary_loss,1,1,congruent,random_punishment_random,0.9258333333333332
541.0,<span style='font-size: 35px;'>le</span>,n,html-keyboard-response,1188,2.1.0,935596,Mchoho,,,probe,n,incongruent,vertical_incon_1,1,,,,neutral,0,0,congruent,random_punishment_random,0.9258333333333332
532.0,<span style='font-size: 35px;'>jobb</span>,f,html-keyboard-response,1193,2.1.0,937539,Mchoho,,,probe,g,congruent,horizontal_con_2,0,,,,neutral,0,1,incongruent,random_punishment_random,0.9258333333333332
531.0,<span style='font-size: 35px;'>le</span>,n,html-keyboard-response,1198,2.1.0,939522,Mchoho,,,probe,n,congruent,vertical_con_1,1,,,,neutral,0,0,congruent,random_punishment_random,0.9258333333333332
545.0,<span style='font-size: 35px;'>jobb</span>,g,html-keyboard-response,1203,2.1.0,941446,Mchoho,,,probe,g,congruent,horizontal_con_2,1,,,,neutral,0,1,congruent,random_punishment_random,0.9258333333333332
440.0,<span style='font-size: 35px;'>le</span>,n,html-keyboard-response,1208,2.1.0,943317,Mchoho,,,probe,n,congruent,vertical_con_1,1,,,,monetary_loss,1,1,congruent,random_punishment_random,0.9258333333333332
775.0,<span style='font-size: 35px;'>bal</span>,f,html-keyboard-response,1213,2.1.0,945523,Mchoho,,,probe,f,incongruent,horizontal_incon_2,1,,,,neutral,0,1,congruent,random_punishment_random,0.9258333333333332
546.0,<span style='font-size: 35px;'>fel</span>,j,html-keyboard-response,1218,2.1.0,947376,Mchoho,,,probe,j,congruent,vertical_con_2,1,,,,monetary_loss,1,1,incongruent,random_punishment_random,0.9258333333333332
842.0,<span style='font-size: 35px;'>jobb</span>,g,html-keyboard-response,1223,2.1.0,949643,Mchoho,,,probe,g,congruent,horizontal_con_2,1,,,,monetary_loss,1,1,congruent,random_punishment_random,0.9258333333333332
537.0,<span style='font-size: 35px;'>fel</span>,j,html-keyboard-response,1228,2.1.0,951538,Mchoho,,,probe,j,congruent,vertical_con_2,1,,,,neutral,0,1,congruent,random_punishment_random,0.9258333333333332
829.0,<span style='font-size: 35px;'>bal</span>,f,html-keyboard-response,1233,2.1.0,953848,Mchoho,,,probe,f,congruent,horizontal_con_1,1,,,,neutral,0,1,congruent,random_punishment_random,0.9258333333333332
492.0,<span style='font-size: 35px;'>fel</span>,j,html-keyboard-response,1238,2.1.0,955688,Mchoho,,,probe,j,congruent,vertical_con_2,1,,,,monetary_loss,1,1,congruent,random_punishment_random,0.9258333333333332
793.0,<span style='font-size: 35px;'>bal</span>,g,html-keyboard-response,1243,2.1.0,957956,Mchoho,,,probe,f,incongruent,horizontal_incon_2,0,,,,neutral,0,1,congruent,random_punishment_random,0.9258333333333332
682.0,<span style='font-size: 35px;'>le</span>,n,html-keyboard-response,1248,2.1.0,960049,Mchoho,,,probe,n,incongruent,vertical_incon_1,1,,,,monetary_loss,1,0,incongruent,random_punishment_random,0.9258333333333332
666.0,<span style='font-size: 35px;'>jobb</span>,g,html-keyboard-response,1253,2.1.0,962141,Mchoho,,,probe,g,congruent,horizontal_con_2,1,,,,neutral,0,1,incongruent,random_punishment_random,0.9258333333333332
447.0,<span style='font-size: 35px;'>fel</span>,n,html-keyboard-response,1258,2.1.0,963940,Mchoho,,,probe,j,incongruent,vertical_incon_2,0,,,,neutral,0,1,congruent,random_punishment_random,0.9258333333333332
815.0,<span style='font-size: 35px;'>jobb</span>,g,html-keyboard-response,1263,2.1.0,966163,Mchoho,,,probe,g,incongruent,horizontal_incon_1,1,,,,monetary_loss,1,0,incongruent,random_punishment_random,0.9258333333333332
639.0,<span style='font-size: 35px;'>fel</span>,j,html-keyboard-response,1268,2.1.0,968156,Mchoho,,,probe,j,incongruent,vertical_incon_2,1,,,,neutral,0,1,incongruent,random_punishment_random,0.9258333333333332
616.0,<span style='font-size: 35px;'>bal</span>,f,html-keyboard-response,1273,2.1.0,970267,Mchoho,,,probe,f,incongruent,horizontal_incon_2,1,,,,neutral,0,1,incongruent,random_punishment_random,0.9258333333333332
586.0,<span style='font-size: 35px;'>fel</span>,j,html-keyboard-response,1278,2.1.0,972285,Mchoho,,,probe,j,incongruent,vertical_incon_2,1,,,,neutral,0,1,incongruent,random_punishment_random,0.9258333333333332
518.0,<span style='font-size: 35px;'>jobb</span>,g,html-keyboard-response,1283,2.1.0,974219,Mchoho,,,probe,g,congruent,horizontal_con_2,1,,,,neutral,0,1,incongruent,random_punishment_random,0.9258333333333332
645.0,<span style='font-size: 35px;'>fel</span>,j,html-keyboard-response,1288,2.1.0,976271,Mchoho,,,probe,j,incongruent,vertical_incon_2,1,,,,neutral,0,1,congruent,random_punishment_random,0.9258333333333332
655.0,<span style='font-size: 35px;'>bal</span>,f,html-keyboard-response,1293,2.1.0,978242,Mchoho,,,probe,f,congruent,horizontal_con_1,1,,,,neutral,0,1,incongruent,random_punishment_random,0.9258333333333332
,<span style='font-size: 35px;'>fel</span>,,html-keyboard-response,1298,2.1.0,980721,Mchoho,,,probe,j,incongruent,vertical_incon_2,0,,,,monetary_loss,1,1,congruent,random_punishment_random,0.9258333333333332
636.0,<span style='font-size: 35px;'>jobb</span>,g,html-keyboard-response,1303,2.1.0,982807,Mchoho,,,probe,g,incongruent,horizontal_incon_1,1,,,,monetary_loss,1,0,incongruent,random_punishment_random,0.9258333333333332
659.0,<span style='font-size: 35px;'>le</span>,n,html-keyboard-response,1308,2.1.0,984946,Mchoho,,,probe,n,incongruent,vertical_incon_1,1,,,,monetary_loss,1,1,incongruent,random_punishment_random,0.9258333333333332
675.0,<span style='font-size: 35px;'>bal</span>,g,html-keyboard-response,1313,2.1.0,986971,Mchoho,,,probe,f,incongruent,horizontal_incon_2,0,,,,neutral,0,1,incongruent,random_punishment_random,0.9258333333333332
625.0,<span style='font-size: 35px;'>le</span>,n,html-keyboard-response,1318,2.1.0,989053,Mchoho,,,probe,n,incongruent,vertical_incon_1,1,,,,monetary_loss,1,0,incongruent,random_punishment_random,0.9258333333333332
876.0,<span style='font-size: 35px;'>bal</span>,f,html-keyboard-response,1323,2.1.0,991262,Mchoho,,,probe,f,congruent,horizontal_con_1,1,,,,monetary_loss,1,1,incongruent,random_punishment_random,0.9258333333333332
557.0,<span style='font-size: 35px;'>le</span>,n,html-keyboard-response,1328,2.1.0,993140,Mchoho,,,probe,n,incongruent,vertical_incon_1,1,,,,neutral,0,1,congruent,random_punishment_random,0.9258333333333332
685.0,<span style='font-size: 35px;'>jobb</span>,g,html-keyboard-response,1333,2.1.0,995241,Mchoho,,,probe,g,incongruent,horizontal_incon_1,1,,,,monetary_loss,1,1,incongruent,random_punishment_random,0.9258333333333332
772.0,<span style='font-size: 35px;'>fel</span>,j,html-keyboard-response,1338,2.1.0,997326,Mchoho,,,probe,j,congruent,vertical_con_2,1,,,,neutral,0,1,incongruent,random_punishment_random,0.9258333333333332
583.0,<span style='font-size: 35px;'>bal</span>,f,html-keyboard-response,1343,2.1.0,999232,Mchoho,,,probe,f,congruent,horizontal_con_1,1,,,,monetary_loss,1,1,congruent,random_punishment_random,0.9258333333333332
418.0,<span style='font-size: 35px;'>le</span>,n,html-keyboard-response,1348,2.1.0,1001016,Mchoho,,,probe,n,congruent,vertical_con_1,1,,,,monetary_loss,1,1,congruent,random_punishment_random,0.9258333333333332
797.0,<span style='font-size: 35px;'>bal</span>,f,html-keyboard-response,1353,2.1.0,1003320,Mchoho,,,probe,f,incongruent,horizontal_incon_2,1,,,,neutral,0,1,congruent,random_punishment_random,0.9258333333333332
443.0,<span style='font-size: 35px;'>le</span>,n,html-keyboard-response,1358,2.1.0,1005098,Mchoho,,,probe,n,congruent,vertical_con_1,1,,,,monetary_loss,1,1,incongruent,random_punishment_random,0.9258333333333332
689.0,<span style='font-size: 35px;'>jobb</span>,g,html-keyboard-response,1363,2.1.0,1007134,Mchoho,,,probe,g,incongruent,horizontal_incon_1,1,,,,monetary_loss,1,1,congruent,random_punishment_random,0.9258333333333332
512.0,<span style='font-size: 35px;'>fel</span>,j,html-keyboard-response,1368,2.1.0,1009134,Mchoho,,,probe,j,congruent,vertical_con_2,1,,,,monetary_loss,1,1,incongruent,random_punishment_random,0.9258333333333332
941.0,<span style='font-size: 35px;'>jobb</span>,f,html-keyboard-response,1373,2.1.0,1011488,Mchoho,,,probe,g,congruent,horizontal_con_2,0,,,,monetary_loss,1,1,congruent,random_punishment_random,0.9258333333333332
549.0,<span style='font-size: 35px;'>le</span>,n,html-keyboard-response,1378,2.1.0,1013420,Mchoho,,,probe,n,incongruent,vertical_incon_1,1,,,,neutral,0,0,congruent,random_punishment_random,0.9258333333333332
617.0,<span style='font-size: 35px;'>jobb</span>,g,html-keyboard-response,1383,2.1.0,1015497,Mchoho,,,probe,g,congruent,horizontal_con_2,1,,,,neutral,0,1,incongruent,random_punishment_random,0.9258333333333332
585.0,<span style='font-size: 35px;'>fel</span>,j,html-keyboard-response,1388,2.1.0,1017473,Mchoho,,,probe,j,incongruent,vertical_incon_2,1,,,,monetary_loss,1,1,congruent,random_punishment_random,0.9258333333333332
607.0,<span style='font-size: 35px;'>jobb</span>,g,html-keyboard-response,1393,2.1.0,1019557,Mchoho,,,probe,g,incongruent,horizontal_incon_1,1,,,,neutral,0,1,incongruent,random_punishment_random,0.9258333333333332
681.0,<span style='font-size: 35px;'>le</span>,n,html-keyboard-response,1398,2.1.0,1021615,Mchoho,,,probe,n,incongruent,vertical_incon_1,1,,,,monetary_loss,1,1,incongruent,random_punishment_random,0.9258333333333332
709.0,<span style='font-size: 35px;'>jobb</span>,g,html-keyboard-response,1403,2.1.0,1023637,Mchoho,,,probe,g,incongruent,horizontal_incon_1,1,,,,monetary_loss,1,1,incongruent,random_punishment_random,0.9258333333333332
669.0,<span style='font-size: 35px;'>le</span>,j,html-keyboard-response,1408,2.1.0,1025735,Mchoho,,,probe,n,incongruent,vertical_incon_1,0,,,,monetary_loss,1,1,incongruent,random_punishment_random,0.9258333333333332
658.0,<span style='font-size: 35px;'>jobb</span>,g,html-keyboard-response,1413,2.1.0,1027853,Mchoho,,,probe,g,incongruent,horizontal_incon_1,1,,,,neutral,0,0,incongruent,random_punishment_random,0.9258333333333332
580.0,<span style='font-size: 35px;'>fel</span>,j,html-keyboard-response,1418,2.1.0,1029809,Mchoho,,,probe,j,congruent,vertical_con_2,1,,,,monetary_loss,1,1,incongruent,random_punishment_random,0.9258333333333332
790.0,<span style='font-size: 35px;'>jobb</span>,g,html-keyboard-response,1423,2.1.0,1032023,Mchoho,,,probe,g,incongruent,horizontal_incon_1,1,,,,monetary_loss,1,1,congruent,random_punishment_random,0.9258333333333332
536.0,<span style='font-size: 35px;'>le</span>,n,html-keyboard-response,1428,2.1.0,1034004,Mchoho,,,probe,n,congruent,vertical_con_1,1,,,,neutral,0,1,incongruent,random_punishment_random,0.9258333333333332
656.0,<span style='font-size: 35px;'>bal</span>,f,html-keyboard-response,1433,2.1.0,1035995,Mchoho,,,probe,f,incongruent,horizontal_incon_2,1,,,,monetary_loss,1,1,congruent,random_punishment_random,0.9258333333333332
572.0,<span style='font-size: 35px;'>le</span>,j,html-keyboard-response,1438,2.1.0,1038055,Mchoho,,,probe,n,incongruent,vertical_incon_1,0,,,,monetary_loss,1,1,incongruent,random_punishment_random,0.9258333333333332
582.0,<span style='font-size: 35px;'>bal</span>,f,html-keyboard-response,1443,2.1.0,1040081,Mchoho,,,probe,f,congruent,horizontal_con_1,1,,,,neutral,0,0,incongruent,random_punishment_random,0.9258333333333332
571.0,<span style='font-size: 35px;'>fel</span>,j,html-keyboard-response,1448,2.1.0,1042021,Mchoho,,,probe,j,incongruent,vertical_incon_2,1,,,,monetary_loss,1,1,congruent,random_punishment_random,0.9258333333333332
764.0,<span style='font-size: 35px;'>bal</span>,f,html-keyboard-response,1453,2.1.0,1044233,Mchoho,,,probe,f,incongruent,horizontal_incon_2,1,,,,monetary_loss,1,1,incongruent,random_punishment_random,0.9258333333333332
637.0,<span style='font-size: 35px;'>le</span>,n,html-keyboard-response,1458,2.1.0,1046208,Mchoho,,,probe,n,congruent,vertical_con_1,1,,,,neutral,0,1,incongruent,random_punishment_random,0.9258333333333332
693.0,<span style='font-size: 35px;'>bal</span>,f,html-keyboard-response,1463,2.1.0,1048296,Mchoho,,,probe,f,congruent,horizontal_con_1,1,,,,neutral,0,1,congruent,random_punishment_random,0.9258333333333332
620.0,<span style='font-size: 35px;'>fel</span>,j,html-keyboard-response,1468,2.1.0,1050297,Mchoho,,,probe,j,incongruent,vertical_incon_2,1,,,,monetary_loss,1,1,congruent,random_punishment_random,0.9258333333333332
694.0,<span style='font-size: 35px;'>jobb</span>,g,html-keyboard-response,1473,2.1.0,1052356,Mchoho,,,probe,g,congruent,horizontal_con_2,1,,,,neutral,0,1,incongruent,random_punishment_random,0.9258333333333332
575.0,<span style='font-size: 35px;'>fel</span>,j,html-keyboard-response,1478,2.1.0,1054249,Mchoho,,,probe,j,incongruent,vertical_incon_2,1,,,,neutral,0,1,congruent,random_punishment_random,0.9258333333333332
496.0,<span style='font-size: 35px;'>jobb</span>,g,html-keyboard-response,1483,2.1.0,1056079,Mchoho,,,probe,g,congruent,horizontal_con_2,1,,,,neutral,0,1,incongruent,random_punishment_random,0.9258333333333332
510.0,<span style='font-size: 35px;'>le</span>,n,html-keyboard-response,1488,2.1.0,1057983,Mchoho,,,probe,n,incongruent,vertical_incon_1,1,,,,neutral,0,1,congruent,random_punishment_random,0.9258333333333332
530.0,<span style='font-size: 35px;'>bal</span>,f,html-keyboard-response,1493,2.1.0,1059874,Mchoho,,,probe,f,congruent,horizontal_con_1,1,,,,neutral,0,1,incongruent,random_punishment_random,0.9258333333333332
503.0,<span style='font-size: 35px;'>fel</span>,j,html-keyboard-response,1498,2.1.0,1061671,Mchoho,,,probe,j,congruent,vertical_con_2,1,,,,neutral,0,1,congruent,random_punishment_random,0.9258333333333332
571.0,<span style='font-size: 35px;'>bal</span>,f,html-keyboard-response,1503,2.1.0,1063743,Mchoho,,,probe,f,congruent,horizontal_con_1,1,,,,neutral,0,1,congruent,random_punishment_random,0.9258333333333332
439.0,<span style='font-size: 35px;'>le</span>,n,html-keyboard-response,1508,2.1.0,1065563,Mchoho,,,probe,n,congruent,vertical_con_1,1,,,,neutral,0,1,congruent,random_punishment_random,0.9258333333333332
478.0,<span style='font-size: 35px;'>bal</span>,f,html-keyboard-response,1513,2.1.0,1067503,Mchoho,,,probe,f,congruent,horizontal_con_1,1,,,,monetary_loss,1,1,congruent,random_punishment_random,0.9258333333333332
491.0,<span style='font-size: 35px;'>fel</span>,j,html-keyboard-response,1518,2.1.0,1069309,Mchoho,,,probe,j,congruent,vertical_con_2,1,,,,monetary_loss,1,1,congruent,random_punishment_random,0.9258333333333332
593.0,<span style='font-size: 35px;'>bal</span>,f,html-keyboard-response,1523,2.1.0,1071354,Mchoho,,,probe,f,congruent,horizontal_con_1,1,,,,neutral,0,1,congruent,random_punishment_random,0.9258333333333332
686.0,<span style='font-size: 35px;'>le</span>,n,html-keyboard-response,1528,2.1.0,1073494,Mchoho,,,probe,n,incongruent,vertical_incon_1,1,,,,neutral,0,1,congruent,random_punishment_random,0.9258333333333332
560.0,<span style='font-size: 35px;'>bal</span>,f,html-keyboard-response,1563,2.1.0,1311073,Mchoho,,,probe,f,congruent,horizontal_con_1,1,,,,tickmark,0,1,incongruent,no_punishment_incongruent,0.9258333333333332
564.0,<span style='font-size: 35px;'>fel</span>,j,html-keyboard-response,1568,2.1.0,1312995,Mchoho,,,probe,j,congruent,vertical_con_2,1,,,,neutral,0,1,congruent,no_punishment_incongruent,0.9258333333333332
603.0,<span style='font-size: 35px;'>bal</span>,f,html-keyboard-response,1573,2.1.0,1314909,Mchoho,,,probe,f,congruent,horizontal_con_1,1,,,,neutral,0,1,congruent,no_punishment_incongruent,0.9258333333333332
589.0,<span style='font-size: 35px;'>fel</span>,j,html-keyboard-response,1578,2.1.0,1316931,Mchoho,,,probe,j,incongruent,vertical_incon_2,1,,,,neutral,0,1,congruent,no_punishment_incongruent,0.9258333333333332
435.0,<span style='font-size: 35px;'>jobb</span>,g,html-keyboard-response,1583,2.1.0,1318844,Mchoho,,,probe,g,congruent,horizontal_con_2,1,,,,tickmark,0,1,incongruent,no_punishment_incongruent,0.9258333333333332
634.0,<span style='font-size: 35px;'>fel</span>,j,html-keyboard-response,1588,2.1.0,1320805,Mchoho,,,probe,j,incongruent,vertical_incon_2,1,,,,neutral,0,1,congruent,no_punishment_incongruent,0.9258333333333332
959.0,<span style='font-size: 35px;'>jobb</span>,g,html-keyboard-response,1593,2.1.0,1323082,Mchoho,,,probe,g,incongruent,horizontal_incon_1,1,,,,tickmark,0,1,incongruent,no_punishment_incongruent,0.9258333333333332
610.0,<span style='font-size: 35px;'>le</span>,n,html-keyboard-response,1598,2.1.0,1325119,Mchoho,,,probe,n,incongruent,vertical_incon_1,1,,,,tickmark,0,1,incongruent,no_punishment_incongruent,0.9258333333333332
610.0,<span style='font-size: 35px;'>bal</span>,f,html-keyboard-response,1603,2.1.0,1327064,Mchoho,,,probe,f,incongruent,horizontal_incon_2,1,,,,tickmark,0,1,incongruent,no_punishment_incongruent,0.9258333333333332
683.0,<span style='font-size: 35px;'>fel</span>,j,html-keyboard-response,1608,2.1.0,1329236,Mchoho,,,probe,j,congruent,vertical_con_2,1,,,,tickmark,0,1,incongruent,no_punishment_incongruent,0.9258333333333332
505.0,<span style='font-size: 35px;'>jobb</span>,g,html-keyboard-response,1613,2.1.0,1331142,Mchoho,,,probe,g,congruent,horizontal_con_2,1,,,,neutral,0,1,congruent,no_punishment_incongruent,0.9258333333333332
599.0,<span style='font-size: 35px;'>le</span>,n,html-keyboard-response,1618,2.1.0,1333233,Mchoho,,,probe,n,incongruent,vertical_incon_1,1,,,,neutral,0,1,congruent,no_punishment_incongruent,0.9258333333333332
646.0,<span style='font-size: 35px;'>jobb</span>,g,html-keyboard-response,1623,2.1.0,1335218,Mchoho,,,probe,g,congruent,horizontal_con_2,1,,,,tickmark,0,1,incongruent,no_punishment_incongruent,0.9258333333333332
583.0,<span style='font-size: 35px;'>le</span>,n,html-keyboard-response,1628,2.1.0,1337216,Mchoho,,,probe,n,congruent,vertical_con_1,1,,,,neutral,0,1,congruent,no_punishment_incongruent,0.9258333333333332
440.0,<span style='font-size: 35px;'>jobb</span>,g,html-keyboard-response,1633,2.1.0,1339046,Mchoho,,,probe,g,congruent,horizontal_con_2,1,,,,neutral,0,1,congruent,no_punishment_incongruent,0.9258333333333332
484.0,<span style='font-size: 35px;'>le</span>,n,html-keyboard-response,1638,2.1.0,1340981,Mchoho,,,probe,n,congruent,vertical_con_1,1,,,,neutral,0,1,congruent,no_punishment_incongruent,0.9258333333333332
692.0,<span style='font-size: 35px;'>bal</span>,f,html-keyboard-response,1643,2.1.0,1343109,Mchoho,,,probe,f,incongruent,horizontal_incon_2,1,,,,neutral,0,1,congruent,no_punishment_incongruent,0.9258333333333332
474.0,<span style='font-size: 35px;'>fel</span>,j,html-keyboard-response,1648,2.1.0,1344898,Mchoho,,,probe,j,congruent,vertical_con_2,1,,,,tickmark,0,1,incongruent,no_punishment_incongruent,0.9258333333333332
404.0,<span style='font-size: 35px;'>jobb</span>,g,html-keyboard-response,1653,2.1.0,1346776,Mchoho,,,probe,g,congruent,horizontal_con_2,1,,,,neutral,0,1,congruent,no_punishment_incongruent,0.9258333333333332
434.0,<span style='font-size: 35px;'>fel</span>,j,html-keyboard-response,1658,2.1.0,1348600,Mchoho,,,probe,j,congruent,vertical_con_2,1,,,,neutral,0,1,congruent,no_punishment_incongruent,0.9258333333333332
408.0,<span style='font-size: 35px;'>bal</span>,f,html-keyboard-response,1663,2.1.0,1350391,Mchoho,,,probe,f,congruent,horizontal_con_1,1,,,,neutral,0,1,congruent,no_punishment_incongruent,0.9258333333333332
601.0,<span style='font-size: 35px;'>fel</span>,j,html-keyboard-response,1668,2.1.0,1352373,Mchoho,,,probe,j,congruent,vertical_con_2,1,,,,neutral,0,1,congruent,no_punishment_incongruent,0.9258333333333332
642.0,<span style='font-size: 35px;'>bal</span>,f,html-keyboard-response,1673,2.1.0,1354419,Mchoho,,,probe,f,incongruent,horizontal_incon_2,1,,,,neutral,0,1,congruent,no_punishment_incongruent,0.9258333333333332
590.0,<span style='font-size: 35px;'>le</span>,n,html-keyboard-response,1678,2.1.0,1356434,Mchoho,,,probe,n,incongruent,vertical_incon_1,1,,,,tickmark,0,1,incongruent,no_punishment_incongruent,0.9258333333333332
546.0,<span style='font-size: 35px;'>jobb</span>,g,html-keyboard-response,1683,2.1.0,1358371,Mchoho,,,probe,g,congruent,horizontal_con_2,1,,,,tickmark,0,1,incongruent,no_punishment_incongruent,0.9258333333333332
485.0,<span style='font-size: 35px;'>fel</span>,j,html-keyboard-response,1688,2.1.0,1360325,Mchoho,,,probe,j,incongruent,vertical_incon_2,1,,,,neutral,0,1,congruent,no_punishment_incongruent,0.9258333333333332
572.0,<span style='font-size: 35px;'>jobb</span>,g,html-keyboard-response,1693,2.1.0,1362262,Mchoho,,,probe,g,incongruent,horizontal_incon_1,1,,,,tickmark,0,1,incongruent,no_punishment_incongruent,0.9258333333333332
561.0,<span style='font-size: 35px;'>fel</span>,j,html-keyboard-response,1698,2.1.0,1364274,Mchoho,,,probe,j,incongruent,vertical_incon_2,1,,,,tickmark,0,1,incongruent,no_punishment_incongruent,0.9258333333333332
572.0,<span style='font-size: 35px;'>bal</span>,f,html-keyboard-response,1703,2.1.0,1366352,Mchoho,,,probe,f,incongruent,horizontal_incon_2,1,,,,tickmark,0,1,incongruent,no_punishment_incongruent,0.9258333333333332
662.0,<span style='font-size: 35px;'>fel</span>,j,html-keyboard-response,1708,2.1.0,1368408,Mchoho,,,probe,j,incongruent,vertical_incon_2,1,,,,tickmark,0,1,incongruent,no_punishment_incongruent,0.9258333333333332
592.0,<span style='font-size: 35px;'>jobb</span>,g,html-keyboard-response,1713,2.1.0,1370394,Mchoho,,,probe,g,congruent,horizontal_con_2,1,,,,tickmark,0,1,incongruent,no_punishment_incongruent,0.9258333333333332
603.0,<span style='font-size: 35px;'>fel</span>,j,html-keyboard-response,1718,2.1.0,1372396,Mchoho,,,probe,j,incongruent,vertical_incon_2,1,,,,neutral,0,1,congruent,no_punishment_incongruent,0.9258333333333332
512.0,<span style='font-size: 35px;'>bal</span>,f,html-keyboard-response,1723,2.1.0,1374264,Mchoho,,,probe,f,congruent,horizontal_con_1,1,,,,tickmark,0,1,incongruent,no_punishment_incongruent,0.9258333333333332
597.0,<span style='font-size: 35px;'>fel</span>,j,html-keyboard-response,1728,2.1.0,1376309,Mchoho,,,probe,j,incongruent,vertical_incon_2,1,,,,neutral,0,1,congruent,no_punishment_incongruent,0.9258333333333332
658.0,<span style='font-size: 35px;'>jobb</span>,g,html-keyboard-response,1733,2.1.0,1378473,Mchoho,,,probe,g,incongruent,horizontal_incon_1,1,,,,tickmark,0,1,incongruent,no_punishment_incongruent,0.9258333333333332
576.0,<span style='font-size: 35px;'>le</span>,n,html-keyboard-response,1738,2.1.0,1380555,Mchoho,,,probe,n,incongruent,vertical_incon_1,1,,,,tickmark,0,1,incongruent,no_punishment_incongruent,0.9258333333333332
606.0,<span style='font-size: 35px;'>bal</span>,f,html-keyboard-response,1743,2.1.0,1382635,Mchoho,,,probe,f,incongruent,horizontal_incon_2,1,,,,tickmark,0,1,incongruent,no_punishment_incongruent,0.9258333333333332
580.0,<span style='font-size: 35px;'>le</span>,n,html-keyboard-response,1748,2.1.0,1384522,Mchoho,,,probe,n,incongruent,vertical_incon_1,1,,,,tickmark,0,1,incongruent,no_punishment_incongruent,0.9258333333333332
765.0,<span style='font-size: 35px;'>bal</span>,f,html-keyboard-response,1753,2.1.0,1386623,Mchoho,,,probe,f,congruent,horizontal_con_1,1,,,,tickmark,0,1,incongruent,no_punishment_incongruent,0.9258333333333332
664.0,<span style='font-size: 35px;'>le</span>,n,html-keyboard-response,1758,2.1.0,1388715,Mchoho,,,probe,n,incongruent,vertical_incon_1,1,,,,neutral,0,1,congruent,no_punishment_incongruent,0.9258333333333332
610.0,<span style='font-size: 35px;'>jobb</span>,g,html-keyboard-response,1763,2.1.0,1390655,Mchoho,,,probe,g,incongruent,horizontal_incon_1,1,,,,tickmark,0,1,incongruent,no_punishment_incongruent,0.9258333333333332
449.0,<span style='font-size: 35px;'>fel</span>,j,html-keyboard-response,1768,2.1.0,1392437,Mchoho,,,probe,j,congruent,vertical_con_2,1,,,,tickmark,0,1,incongruent,no_punishment_incongruent,0.9258333333333332
463.0,<span style='font-size: 35px;'>bal</span>,f,html-keyboard-response,1773,2.1.0,1394240,Mchoho,,,probe,f,congruent,horizontal_con_1,1,,,,neutral,0,1,congruent,no_punishment_incongruent,0.9258333333333332
420.0,<span style='font-size: 35px;'>le</span>,n,html-keyboard-response,1778,2.1.0,1396086,Mchoho,,,probe,n,congruent,vertical_con_1,1,,,,neutral,0,1,congruent,no_punishment_incongruent,0.9258333333333332
689.0,<span style='font-size: 35px;'>bal</span>,f,html-keyboard-response,1783,2.1.0,1398097,Mchoho,,,probe,f,incongruent,horizontal_incon_2,1,,,,neutral,0,1,congruent,no_punishment_incongruent,0.9258333333333332
,<span style='font-size: 35px;'>le</span>,,html-keyboard-response,1788,2.1.0,1400591,Mchoho,,,probe,n,congruent,vertical_con_1,0,,,,tickmark,0,1,incongruent,no_punishment_incongruent,0.9258333333333332
697.0,<span style='font-size: 35px;'>jobb</span>,f,html-keyboard-response,1793,2.1.0,1402616,Mchoho,,,probe,g,incongruent,horizontal_incon_1,0,,,,neutral,0,0,congruent,no_punishment_incongruent,0.9258333333333332
679.0,<span style='font-size: 35px;'>fel</span>,j,html-keyboard-response,1798,2.1.0,1404710,Mchoho,,,probe,j,congruent,vertical_con_2,1,,,,visual_punishment,0,0,incongruent,no_punishment_incongruent,0.9258333333333332
615.0,<span style='font-size: 35px;'>jobb</span>,f,html-keyboard-response,1803,2.1.0,1406805,Mchoho,,,probe,g,congruent,horizontal_con_2,0,,,,neutral,0,1,congruent,no_punishment_incongruent,0.9258333333333332
557.0,<span style='font-size: 35px;'>le</span>,n,html-keyboard-response,1808,2.1.0,1408799,Mchoho,,,probe,n,incongruent,vertical_incon_1,1,,,,neutral,0,0,congruent,no_punishment_incongruent,0.9258333333333332
548.0,<span style='font-size: 35px;'>jobb</span>,g,html-keyboard-response,1813,2.1.0,1410765,Mchoho,,,probe,g,congruent,horizontal_con_2,1,,,,tickmark,0,1,incongruent,no_punishment_incongruent,0.9258333333333332
798.0,<span style='font-size: 35px;'>fel</span>,n,html-keyboard-response,1818,2.1.0,1412974,Mchoho,,,probe,j,incongruent,vertical_incon_2,0,,,,neutral,0,1,congruent,no_punishment_incongruent,0.9258333333333332
703.0,<span style='font-size: 35px;'>jobb</span>,g,html-keyboard-response,1823,2.1.0,1415007,Mchoho,,,probe,g,incongruent,horizontal_incon_1,1,,,,visual_punishment,0,0,incongruent,no_punishment_incongruent,0.9258333333333332
485.0,<span style='font-size: 35px;'>le</span>,n,html-keyboard-response,1828,2.1.0,1416850,Mchoho,,,probe,n,incongruent,vertical_incon_1,1,,,,tickmark,0,1,incongruent,no_punishment_incongruent,0.9258333333333332
621.0,<span style='font-size: 35px;'>jobb</span>,g,html-keyboard-response,1833,2.1.0,1418854,Mchoho,,,probe,g,incongruent,horizontal_incon_1,1,,,,tickmark,0,1,incongruent,no_punishment_incongruent,0.9258333333333332
642.0,<span style='font-size: 35px;'>le</span>,n,html-keyboard-response,1838,2.1.0,1420990,Mchoho,,,probe,n,incongruent,vertical_incon_1,1,,,,tickmark,0,1,incongruent,no_punishment_incongruent,0.9258333333333332
881.0,<span style='font-size: 35px;'>jobb</span>,g,html-keyboard-response,1843,2.1.0,1423177,Mchoho,,,probe,g,incongruent,horizontal_incon_1,1,,,,tickmark,0,1,incongruent,no_punishment_incongruent,0.9258333333333332
532.0,<span style='font-size: 35px;'>fel</span>,j,html-keyboard-response,1848,2.1.0,1425077,Mchoho,,,probe,j,congruent,vertical_con_2,1,,,,tickmark,0,1,incongruent,no_punishment_incongruent,0.9258333333333332
762.0,<span style='font-size: 35px;'>jobb</span>,g,html-keyboard-response,1853,2.1.0,1427225,Mchoho,,,probe,g,incongruent,horizontal_incon_1,1,,,,neutral,0,1,congruent,no_punishment_incongruent,0.9258333333333332
381.0,<span style='font-size: 35px;'>le</span>,n,html-keyboard-response,1858,2.1.0,1429066,Mchoho,,,probe,n,congruent,vertical_con_1,1,,,,tickmark,0,1,incongruent,no_punishment_incongruent,0.9258333333333332
645.0,<span style='font-size: 35px;'>bal</span>,f,html-keyboard-response,1863,2.1.0,1431172,Mchoho,,,probe,f,incongruent,horizontal_incon_2,1,,,,neutral,0,1,congruent,no_punishment_incongruent,0.9258333333333332
524.0,<span style='font-size: 35px;'>le</span>,n,html-keyboard-response,1868,2.1.0,1433166,Mchoho,,,probe,n,incongruent,vertical_incon_1,1,,,,tickmark,0,1,incongruent,no_punishment_incongruent,0.9258333333333332
465.0,<span style='font-size: 35px;'>bal</span>,f,html-keyboard-response,1873,2.1.0,1435038,Mchoho,,,probe,f,congruent,horizontal_con_1,1,,,,tickmark,0,1,incongruent,no_punishment_incongruent,0.9258333333333332
445.0,<span style='font-size: 35px;'>fel</span>,j,html-keyboard-response,1878,2.1.0,1436871,Mchoho,,,probe,j,incongruent,vertical_incon_2,1,,,,neutral,0,1,congruent,no_punishment_incongruent,0.9258333333333332
553.0,<span style='font-size: 35px;'>bal</span>,f,html-keyboard-response,1883,2.1.0,1438911,Mchoho,,,probe,f,incongruent,horizontal_incon_2,1,,,,tickmark,0,1,incongruent,no_punishment_incongruent,0.9258333333333332
530.0,<span style='font-size: 35px;'>le</span>,n,html-keyboard-response,1888,2.1.0,1440759,Mchoho,,,probe,n,congruent,vertical_con_1,1,,,,tickmark,0,1,incongruent,no_punishment_incongruent,0.9258333333333332
470.0,<span style='font-size: 35px;'>bal</span>,g,html-keyboard-response,1893,2.1.0,1442537,Mchoho,,,probe,f,congruent,horizontal_con_1,0,,,,neutral,0,1,congruent,no_punishment_incongruent,0.9258333333333332
545.0,<span style='font-size: 35px;'>fel</span>,j,html-keyboard-response,1898,2.1.0,1444570,Mchoho,,,probe,j,incongruent,vertical_incon_2,1,,,,neutral,0,0,congruent,no_punishment_incongruent,0.9258333333333332
526.0,<span style='font-size: 35px;'>jobb</span>,g,html-keyboard-response,1903,2.1.0,1446557,Mchoho,,,probe,g,congruent,horizontal_con_2,1,,,,tickmark,0,1,incongruent,no_punishment_incongruent,0.9258333333333332
562.0,<span style='font-size: 35px;'>fel</span>,j,html-keyboard-response,1908,2.1.0,1448603,Mchoho,,,probe,j,incongruent,vertical_incon_2,1,,,,neutral,0,1,congruent,no_punishment_incongruent,0.9258333333333332
461.0,<span style='font-size: 35px;'>jobb</span>,g,html-keyboard-response,1913,2.1.0,1450386,Mchoho,,,probe,g,congruent,horizontal_con_2,1,,,,tickmark,0,1,incongruent,no_punishment_incongruent,0.9258333333333332
601.0,<span style='font-size: 35px;'>le</span>,n,html-keyboard-response,1918,2.1.0,1452466,Mchoho,,,probe,n,incongruent,vertical_incon_1,1,,,,neutral,0,1,congruent,no_punishment_incongruent,0.9258333333333332
406.0,<span style='font-size: 35px;'>bal</span>,f,html-keyboard-response,1923,2.1.0,1454342,Mchoho,,,probe,f,congruent,horizontal_con_1,1,,,,tickmark,0,1,incongruent,no_punishment_incongruent,0.9258333333333332
682.0,<span style='font-size: 35px;'>fel</span>,j,html-keyboard-response,1928,2.1.0,1456348,Mchoho,,,probe,j,congruent,vertical_con_2,1,,,,neutral,0,1,congruent,no_punishment_incongruent,0.9258333333333332
519.0,<span style='font-size: 35px;'>bal</span>,f,html-keyboard-response,1933,2.1.0,1458345,Mchoho,,,probe,f,congruent,horizontal_con_1,1,,,,neutral,0,1,congruent,no_punishment_incongruent,0.9258333333333332
479.0,<span style='font-size: 35px;'>le</span>,n,html-keyboard-response,1938,2.1.0,1460253,Mchoho,,,probe,n,congruent,vertical_con_1,1,,,,neutral,0,1,congruent,no_punishment_incongruent,0.9258333333333332
474.0,<span style='font-size: 35px;'>bal</span>,f,html-keyboard-response,1943,2.1.0,1462084,Mchoho,,,probe,f,congruent,horizontal_con_1,1,,,,neutral,0,1,congruent,no_punishment_incongruent,0.9258333333333332
526.0,<span style='font-size: 35px;'>fel</span>,j,html-keyboard-response,1948,2.1.0,1464094,Mchoho,,,probe,j,congruent,vertical_con_2,1,,,,neutral,0,1,congruent,no_punishment_incongruent,0.9258333333333332
648.0,<span style='font-size: 35px;'>bal</span>,f,html-keyboard-response,1953,2.1.0,1466159,Mchoho,,,probe,f,congruent,horizontal_con_1,1,,,,neutral,0,1,congruent,no_punishment_incongruent,0.9258333333333332
573.0,<span style='font-size: 35px;'>le</span>,n,html-keyboard-response,1958,2.1.0,1468192,Mchoho,,,probe,n,incongruent,vertical_incon_1,1,,,,neutral,0,1,congruent,no_punishment_incongruent,0.9258333333333332
772.0,<span style='font-size: 35px;'>bal</span>,f,html-keyboard-response,1969,2.1.0,1500900,Mchoho,,,probe,f,congruent,horizontal_con_1,1,,,,tickmark,0,1,incongruent,no_punishment_incongruent,0.9258333333333332
509.0,<span style='font-size: 35px;'>fel</span>,j,html-keyboard-response,1974,2.1.0,1502887,Mchoho,,,probe,j,congruent,vertical_con_2,1,,,,neutral,0,1,congruent,no_punishment_incongruent,0.9258333333333332
493.0,<span style='font-size: 35px;'>bal</span>,f,html-keyboard-response,1979,2.1.0,1504835,Mchoho,,,probe,f,congruent,horizontal_con_1,1,,,,neutral,0,1,congruent,no_punishment_incongruent,0.9258333333333332
575.0,<span style='font-size: 35px;'>fel</span>,j,html-keyboard-response,1984,2.1.0,1506717,Mchoho,,,probe,j,incongruent,vertical_incon_2,1,,,,neutral,0,1,congruent,no_punishment_incongruent,0.9258333333333332
442.0,<span style='font-size: 35px;'>jobb</span>,g,html-keyboard-response,1989,2.1.0,1508485,Mchoho,,,probe,g,congruent,horizontal_con_2,1,,,,tickmark,0,1,incongruent,no_punishment_incongruent,0.9258333333333332
518.0,<span style='font-size: 35px;'>fel</span>,j,html-keyboard-response,1994,2.1.0,1510458,Mchoho,,,probe,j,incongruent,vertical_incon_2,1,,,,neutral,0,1,congruent,no_punishment_incongruent,0.9258333333333332
620.0,<span style='font-size: 35px;'>jobb</span>,g,html-keyboard-response,1999,2.1.0,1512550,Mchoho,,,probe,g,incongruent,horizontal_incon_1,1,,,,tickmark,0,1,incongruent,no_punishment_incongruent,0.9258333333333332
500.0,<span style='font-size: 35px;'>le</span>,n,html-keyboard-response,2004,2.1.0,1514548,Mchoho,,,probe,n,incongruent,vertical_incon_1,1,,,,tickmark,0,1,incongruent,no_punishment_incongruent,0.9258333333333332
538.0,<span style='font-size: 35px;'>bal</span>,f,html-keyboard-response,2009,2.1.0,1516435,Mchoho,,,probe,f,incongruent,horizontal_incon_2,1,,,,tickmark,0,1,incongruent,no_punishment_incongruent,0.9258333333333332
637.0,<span style='font-size: 35px;'>fel</span>,j,html-keyboard-response,2014,2.1.0,1518508,Mchoho,,,probe,j,congruent,vertical_con_2,1,,,,tickmark,0,1,incongruent,no_punishment_incongruent,0.9258333333333332
525.0,<span style='font-size: 35px;'>jobb</span>,g,html-keyboard-response,2019,2.1.0,1520422,Mchoho,,,probe,g,congruent,horizontal_con_2,1,,,,neutral,0,1,congruent,no_punishment_incongruent,0.9258333333333332
527.0,<span style='font-size: 35px;'>le</span>,n,html-keyboard-response,2024,2.1.0,1522426,Mchoho,,,probe,n,incongruent,vertical_incon_1,1,,,,neutral,0,1,congruent,no_punishment_incongruent,0.9258333333333332
570.0,<span style='font-size: 35px;'>jobb</span>,g,html-keyboard-response,2029,2.1.0,1524364,Mchoho,,,probe,g,congruent,horizontal_con_2,1,,,,tickmark,0,1,incongruent,no_punishment_incongruent,0.9258333333333332
460.0,<span style='font-size: 35px;'>le</span>,n,html-keyboard-response,2034,2.1.0,1526290,Mchoho,,,probe,n,congruent,vertical_con_1,1,,,,neutral,0,1,congruent,no_punishment_incongruent,0.9258333333333332
543.0,<span style='font-size: 35px;'>jobb</span>,g,html-keyboard-response,2039,2.1.0,1528226,Mchoho,,,probe,g,congruent,horizontal_con_2,1,,,,neutral,0,1,congruent,no_punishment_incongruent,0.9258333333333332
430.0,<span style='font-size: 35px;'>le</span>,n,html-keyboard-response,2044,2.1.0,1529995,Mchoho,,,probe,n,congruent,vertical_con_1,1,,,,neutral,0,1,congruent,no_punishment_incongruent,0.9258333333333332
364.0,<span style='font-size: 35px;'>bal</span>,g,html-keyboard-response,2049,2.1.0,1531829,Mchoho,,,probe,f,incongruent,horizontal_incon_2,0,,,,neutral,0,1,congruent,no_punishment_incongruent,0.9258333333333332
787.0,<span style='font-size: 35px;'>fel</span>,j,html-keyboard-response,2054,2.1.0,1534078,Mchoho,,,probe,j,congruent,vertical_con_2,1,,,,visual_punishment,0,0,incongruent,no_punishment_incongruent,0.9258333333333332
453.0,<span style='font-size: 35px;'>jobb</span>,g,html-keyboard-response,2059,2.1.0,1535965,Mchoho,,,probe,g,congruent,horizontal_con_2,1,,,,neutral,0,1,congruent,no_punishment_incongruent,0.9258333333333332
473.0,<span style='font-size: 35px;'>fel</span>,j,html-keyboard-response,2064,2.1.0,1537835,Mchoho,,,probe,j,congruent,vertical_con_2,1,,,,neutral,0,1,congruent,no_punishment_incongruent,0.9258333333333332
475.0,<span style='font-size: 35px;'>bal</span>,f,html-keyboard-response,2069,2.1.0,1539726,Mchoho,,,probe,f,congruent,horizontal_con_1,1,,,,neutral,0,1,congruent,no_punishment_incongruent,0.9258333333333332
416.0,<span style='font-size: 35px;'>fel</span>,j,html-keyboard-response,2074,2.1.0,1541599,Mchoho,,,probe,j,congruent,vertical_con_2,1,,,,neutral,0,1,congruent,no_punishment_incongruent,0.9258333333333332
650.0,<span style='font-size: 35px;'>bal</span>,f,html-keyboard-response,2079,2.1.0,1543640,Mchoho,,,probe,f,incongruent,horizontal_incon_2,1,,,,neutral,0,1,congruent,no_punishment_incongruent,0.9258333333333332
458.0,<span style='font-size: 35px;'>le</span>,n,html-keyboard-response,2084,2.1.0,1545596,Mchoho,,,probe,n,incongruent,vertical_incon_1,1,,,,tickmark,0,1,incongruent,no_punishment_incongruent,0.9258333333333332
428.0,<span style='font-size: 35px;'>jobb</span>,g,html-keyboard-response,2089,2.1.0,1547391,Mchoho,,,probe,g,congruent,horizontal_con_2,1,,,,tickmark,0,1,incongruent,no_punishment_incongruent,0.9258333333333332
467.0,<span style='font-size: 35px;'>fel</span>,j,html-keyboard-response,2094,2.1.0,1549221,Mchoho,,,probe,j,incongruent,vertical_incon_2,1,,,,neutral,0,1,congruent,no_punishment_incongruent,0.9258333333333332
477.0,<span style='font-size: 35px;'>jobb</span>,f,html-keyboard-response,2099,2.1.0,1551005,Mchoho,,,probe,g,incongruent,horizontal_incon_1,0,,,,tickmark,0,1,incongruent,no_punishment_incongruent,0.9258333333333332
513.0,<span style='font-size: 35px;'>fel</span>,n,html-keyboard-response,2104,2.1.0,1552853,Mchoho,,,probe,j,incongruent,vertical_incon_2,0,,,,visual_punishment,0,0,incongruent,no_punishment_incongruent,0.9258333333333332
512.0,<span style='font-size: 35px;'>bal</span>,f,html-keyboard-response,2109,2.1.0,1554824,Mchoho,,,probe,f,incongruent,horizontal_incon_2,1,,,,visual_punishment,0,0,incongruent,no_punishment_incongruent,0.9258333333333332
454.0,<span style='font-size: 35px;'>fel</span>,j,html-keyboard-response,2114,2.1.0,1556742,Mchoho,,,probe,j,incongruent,vertical_incon_2,1,,,,tickmark,0,1,incongruent,no_punishment_incongruent,0.9258333333333332
408.0,<span style='font-size: 35px;'>jobb</span>,g,html-keyboard-response,2119,2.1.0,1558486,Mchoho,,,probe,g,congruent,horizontal_con_2,1,,,,tickmark,0,1,incongruent,no_punishment_incongruent,0.9258333333333332
520.0,<span style='font-size: 35px;'>fel</span>,j,html-keyboard-response,2124,2.1.0,1560361,Mchoho,,,probe,j,incongruent,vertical_incon_2,1,,,,neutral,0,1,congruent,no_punishment_incongruent,0.9258333333333332
520.0,<span style='font-size: 35px;'>bal</span>,f,html-keyboard-response,2129,2.1.0,1562360,Mchoho,,,probe,f,congruent,horizontal_con_1,1,,,,tickmark,0,1,incongruent,no_punishment_incongruent,0.9258333333333332
423.0,<span style='font-size: 35px;'>fel</span>,j,html-keyboard-response,2134,2.1.0,1564154,Mchoho,,,probe,j,incongruent,vertical_incon_2,1,,,,neutral,0,1,congruent,no_punishment_incongruent,0.9258333333333332
645.0,<span style='font-size: 35px;'>jobb</span>,f,html-keyboard-response,2139,2.1.0,1566106,Mchoho,,,probe,g,incongruent,horizontal_incon_1,0,,,,tickmark,0,1,incongruent,no_punishment_incongruent,0.9258333333333332
457.0,<span style='font-size: 35px;'>le</span>,n,html-keyboard-response,2144,2.1.0,1568035,Mchoho,,,probe,n,incongruent,vertical_incon_1,1,,,,visual_punishment,0,0,incongruent,no_punishment_incongruent,0.9258333333333332
551.0,<span style='font-size: 35px;'>bal</span>,f,html-keyboard-response,2149,2.1.0,1569997,Mchoho,,,probe,f,incongruent,horizontal_incon_2,1,,,,tickmark,0,1,incongruent,no_punishment_incongruent,0.9258333333333332
394.0,<span style='font-size: 35px;'>le</span>,j,html-keyboard-response,2154,2.1.0,1571753,Mchoho,,,probe,n,incongruent,vertical_incon_1,0,,,,tickmark,0,1,incongruent,no_punishment_incongruent,0.9258333333333332
516.0,<span style='font-size: 35px;'>bal</span>,f,html-keyboard-response,2159,2.1.0,1573676,Mchoho,,,probe,f,congruent,horizontal_con_1,1,,,,visual_punishment,0,0,incongruent,no_punishment_incongruent,0.9258333333333332
531.0,<span style='font-size: 35px;'>le</span>,n,html-keyboard-response,2164,2.1.0,1575535,Mchoho,,,probe,n,incongruent,vertical_incon_1,1,,,,neutral,0,1,congruent,no_punishment_incongruent,0.9258333333333332
691.0,<span style='font-size: 35px;'>jobb</span>,g,html-keyboard-response,2169,2.1.0,1577535,Mchoho,,,probe,g,incongruent,horizontal_incon_1,1,,,,tickmark,0,1,incongruent,no_punishment_incongruent,0.9258333333333332
478.0,<span style='font-size: 35px;'>fel</span>,j,html-keyboard-response,2174,2.1.0,1579451,Mchoho,,,probe,j,congruent,vertical_con_2,1,,,,tickmark,0,1,incongruent,no_punishment_incongruent,0.9258333333333332
452.0,<span style='font-size: 35px;'>bal</span>,f,html-keyboard-response,2179,2.1.0,1581390,Mchoho,,,probe,f,congruent,horizontal_con_1,1,,,,neutral,0,1,congruent,no_punishment_incongruent,0.9258333333333332
551.0,<span style='font-size: 35px;'>le</span>,n,html-keyboard-response,2184,2.1.0,1583247,Mchoho,,,probe,n,congruent,vertical_con_1,1,,,,neutral,0,1,congruent,no_punishment_incongruent,0.9258333333333332
654.0,<span style='font-size: 35px;'>bal</span>,f,html-keyboard-response,2189,2.1.0,1585229,Mchoho,,,probe,f,incongruent,horizontal_incon_2,1,,,,neutral,0,1,congruent,no_punishment_incongruent,0.9258333333333332
470.0,<span style='font-size: 35px;'>le</span>,n,html-keyboard-response,2194,2.1.0,1587065,Mchoho,,,probe,n,congruent,vertical_con_1,1,,,,tickmark,0,1,incongruent,no_punishment_incongruent,0.9258333333333332
602.0,<span style='font-size: 35px;'>jobb</span>,g,html-keyboard-response,2199,2.1.0,1588972,Mchoho,,,probe,g,incongruent,horizontal_incon_1,1,,,,neutral,0,1,congruent,no_punishment_incongruent,0.9258333333333332
422.0,<span style='font-size: 35px;'>fel</span>,j,html-keyboard-response,2204,2.1.0,1590881,Mchoho,,,probe,j,congruent,vertical_con_2,1,,,,tickmark,0,1,incongruent,no_punishment_incongruent,0.9258333333333332
489.0,<span style='font-size: 35px;'>jobb</span>,f,html-keyboard-response,2209,2.1.0,1592845,Mchoho,,,probe,g,congruent,horizontal_con_2,0,,,,neutral,0,1,congruent,no_punishment_incongruent,0.9258333333333332
501.0,<span style='font-size: 35px;'>le</span>,n,html-keyboard-response,2214,2.1.0,1594680,Mchoho,,,probe,n,incongruent,vertical_incon_1,1,,,,neutral,0,0,congruent,no_punishment_incongruent,0.9258333333333332
518.0,<span style='font-size: 35px;'>jobb</span>,g,html-keyboard-response,2219,2.1.0,1596557,Mchoho,,,probe,g,congruent,horizontal_con_2,1,,,,tickmark,0,1,incongruent,no_punishment_incongruent,0.9258333333333332
529.0,<span style='font-size: 35px;'>fel</span>,j,html-keyboard-response,2224,2.1.0,1598554,Mchoho,,,probe,j,incongruent,vertical_incon_2,1,,,,neutral,0,1,congruent,no_punishment_incongruent,0.9258333333333332
413.0,<span style='font-size: 35px;'>jobb</span>,f,html-keyboard-response,2229,2.1.0,1600464,Mchoho,,,probe,g,incongruent,horizontal_incon_1,0,,,,tickmark,0,1,incongruent,no_punishment_incongruent,0.9258333333333332
484.0,<span style='font-size: 35px;'>le</span>,n,html-keyboard-response,2234,2.1.0,1602358,Mchoho,,,probe,n,incongruent,vertical_incon_1,1,,,,visual_punishment,0,0,incongruent,no_punishment_incongruent,0.9258333333333332
582.0,<span style='font-size: 35px;'>jobb</span>,g,html-keyboard-response,2239,2.1.0,1604386,Mchoho,,,probe,g,incongruent,horizontal_incon_1,1,,,,tickmark,0,1,incongruent,no_punishment_incongruent,0.9258333333333332
631.0,<span style='font-size: 35px;'>le</span>,n,html-keyboard-response,2244,2.1.0,1606400,Mchoho,,,probe,n,incongruent,vertical_incon_1,1,,,,tickmark,0,1,incongruent,no_punishment_incongruent,0.9258333333333332
626.0,<span style='font-size: 35px;'>jobb</span>,g,html-keyboard-response,2249,2.1.0,1608448,Mchoho,,,probe,g,incongruent,horizontal_incon_1,1,,,,tickmark,0,1,incongruent,no_punishment_incongruent,0.9258333333333332
621.0,<span style='font-size: 35px;'>fel</span>,j,html-keyboard-response,2254,2.1.0,1610527,Mchoho,,,probe,j,congruent,vertical_con_2,1,,,,tickmark,0,1,incongruent,no_punishment_incongruent,0.9258333333333332
615.0,<span style='font-size: 35px;'>jobb</span>,g,html-keyboard-response,2259,2.1.0,1612471,Mchoho,,,probe,g,incongruent,horizontal_incon_1,1,,,,neutral,0,1,congruent,no_punishment_incongruent,0.9258333333333332
450.0,<span style='font-size: 35px;'>le</span>,n,html-keyboard-response,2264,2.1.0,1614244,Mchoho,,,probe,n,congruent,vertical_con_1,1,,,,tickmark,0,1,incongruent,no_punishment_incongruent,0.9258333333333332
591.0,<span style='font-size: 35px;'>bal</span>,f,html-keyboard-response,2269,2.1.0,1616159,Mchoho,,,probe,f,incongruent,horizontal_incon_2,1,,,,neutral,0,1,congruent,no_punishment_incongruent,0.9258333333333332
640.0,<span style='font-size: 35px;'>le</span>,n,html-keyboard-response,2274,2.1.0,1618291,Mchoho,,,probe,n,incongruent,vertical_incon_1,1,,,,tickmark,0,1,incongruent,no_punishment_incongruent,0.9258333333333332
476.0,<span style='font-size: 35px;'>bal</span>,f,html-keyboard-response,2279,2.1.0,1620129,Mchoho,,,probe,f,congruent,horizontal_con_1,1,,,,tickmark,0,1,incongruent,no_punishment_incongruent,0.9258333333333332
649.0,<span style='font-size: 35px;'>fel</span>,j,html-keyboard-response,2284,2.1.0,1622164,Mchoho,,,probe,j,incongruent,vertical_incon_2,1,,,,neutral,0,1,congruent,no_punishment_incongruent,0.9258333333333332
606.0,<span style='font-size: 35px;'>bal</span>,f,html-keyboard-response,2289,2.1.0,1624189,Mchoho,,,probe,f,incongruent,horizontal_incon_2,1,,,,tickmark,0,1,incongruent,no_punishment_incongruent,0.9258333333333332
416.0,<span style='font-size: 35px;'>le</span>,n,html-keyboard-response,2294,2.1.0,1625943,Mchoho,,,probe,n,congruent,vertical_con_1,1,,,,tickmark,0,1,incongruent,no_punishment_incongruent,0.9258333333333332
904.0,<span style='font-size: 35px;'>bal</span>,f,html-keyboard-response,2299,2.1.0,1628316,Mchoho,,,probe,f,congruent,horizontal_con_1,1,,,,neutral,0,1,congruent,no_punishment_incongruent,0.9258333333333332
607.0,<span style='font-size: 35px;'>fel</span>,j,html-keyboard-response,2304,2.1.0,1630293,Mchoho,,,probe,j,incongruent,vertical_incon_2,1,,,,neutral,0,1,congruent,no_punishment_incongruent,0.9258333333333332
574.0,<span style='font-size: 35px;'>jobb</span>,g,html-keyboard-response,2309,2.1.0,1632161,Mchoho,,,probe,g,congruent,horizontal_con_2,1,,,,tickmark,0,1,incongruent,no_punishment_incongruent,0.9258333333333332
613.0,<span style='font-size: 35px;'>fel</span>,j,html-keyboard-response,2314,2.1.0,1634149,Mchoho,,,probe,j,incongruent,vertical_incon_2,1,,,,neutral,0,1,congruent,no_punishment_incongruent,0.9258333333333332
488.0,<span style='font-size: 35px;'>jobb</span>,g,html-keyboard-response,2319,2.1.0,1635977,Mchoho,,,probe,g,congruent,horizontal_con_2,1,,,,tickmark,0,1,incongruent,no_punishment_incongruent,0.9258333333333332
546.0,<span style='font-size: 35px;'>le</span>,n,html-keyboard-response,2324,2.1.0,1637919,Mchoho,,,probe,n,incongruent,vertical_incon_1,1,,,,neutral,0,1,congruent,no_punishment_incongruent,0.9258333333333332
487.0,<span style='font-size: 35px;'>bal</span>,f,html-keyboard-response,2329,2.1.0,1639856,Mchoho,,,probe,f,congruent,horizontal_con_1,1,,,,tickmark,0,1,incongruent,no_punishment_incongruent,0.9258333333333332
449.0,<span style='font-size: 35px;'>fel</span>,j,html-keyboard-response,2334,2.1.0,1641651,Mchoho,,,probe,j,congruent,vertical_con_2,1,,,,neutral,0,1,congruent,no_punishment_incongruent,0.9258333333333332
533.0,<span style='font-size: 35px;'>bal</span>,f,html-keyboard-response,2339,2.1.0,1643502,Mchoho,,,probe,f,congruent,horizontal_con_1,1,,,,neutral,0,1,congruent,no_punishment_incongruent,0.9258333333333332
361.0,<span style='font-size: 35px;'>le</span>,n,html-keyboard-response,2344,2.1.0,1645309,Mchoho,,,probe,n,congruent,vertical_con_1,1,,,,neutral,0,1,congruent,no_punishment_incongruent,0.9258333333333332
528.0,<span style='font-size: 35px;'>bal</span>,f,html-keyboard-response,2349,2.1.0,1647285,Mchoho,,,probe,f,congruent,horizontal_con_1,1,,,,neutral,0,1,congruent,no_punishment_incongruent,0.9258333333333332
497.0,<span style='font-size: 35px;'>fel</span>,j,html-keyboard-response,2354,2.1.0,1649134,Mchoho,,,probe,j,congruent,vertical_con_2,1,,,,neutral,0,1,congruent,no_punishment_incongruent,0.9258333333333332
398.0,<span style='font-size: 35px;'>bal</span>,f,html-keyboard-response,2359,2.1.0,1651029,Mchoho,,,probe,f,congruent,horizontal_con_1,1,,,,neutral,0,1,congruent,no_punishment_incongruent,0.9258333333333332
561.0,<span style='font-size: 35px;'>le</span>,n,html-keyboard-response,2364,2.1.0,1653057,Mchoho,,,probe,n,incongruent,vertical_incon_1,1,,,,neutral,0,1,congruent,no_punishment_incongruent,0.9258333333333332
417.0,<span style='font-size: 35px;'>bal</span>,f,html-keyboard-response,2375,2.1.0,1678356,Mchoho,,,probe,f,congruent,horizontal_con_1,1,,,,tickmark,0,1,incongruent,no_punishment_incongruent,0.9258333333333332
453.0,<span style='font-size: 35px;'>fel</span>,j,html-keyboard-response,2380,2.1.0,1680296,Mchoho,,,probe,j,congruent,vertical_con_2,1,,,,neutral,0,1,congruent,no_punishment_incongruent,0.9258333333333332
432.0,<span style='font-size: 35px;'>bal</span>,f,html-keyboard-response,2385,2.1.0,1682117,Mchoho,,,probe,f,congruent,horizontal_con_1,1,,,,neutral,0,1,congruent,no_punishment_incongruent,0.9258333333333332
533.0,<span style='font-size: 35px;'>fel</span>,j,html-keyboard-response,2390,2.1.0,1684079,Mchoho,,,probe,j,incongruent,vertical_incon_2,1,,,,neutral,0,1,congruent,no_punishment_incongruent,0.9258333333333332
531.0,<span style='font-size: 35px;'>jobb</span>,g,html-keyboard-response,2395,2.1.0,1686102,Mchoho,,,probe,g,congruent,horizontal_con_2,1,,,,tickmark,0,1,incongruent,no_punishment_incongruent,0.9258333333333332
475.0,<span style='font-size: 35px;'>fel</span>,j,html-keyboard-response,2400,2.1.0,1687965,Mchoho,,,probe,j,incongruent,vertical_incon_2,1,,,,neutral,0,1,congruent,no_punishment_incongruent,0.9258333333333332
617.0,<span style='font-size: 35px;'>jobb</span>,g,html-keyboard-response,2405,2.1.0,1689897,Mchoho,,,probe,g,incongruent,horizontal_incon_1,1,,,,tickmark,0,1,incongruent,no_punishment_incongruent,0.9258333333333332
618.0,<span style='font-size: 35px;'>le</span>,n,html-keyboard-response,2410,2.1.0,1691987,Mchoho,,,probe,n,incongruent,vertical_incon_1,1,,,,tickmark,0,1,incongruent,no_punishment_incongruent,0.9258333333333332
637.0,<span style='font-size: 35px;'>bal</span>,f,html-keyboard-response,2415,2.1.0,1693970,Mchoho,,,probe,f,incongruent,horizontal_incon_2,1,,,,tickmark,0,1,incongruent,no_punishment_incongruent,0.9258333333333332
540.0,<span style='font-size: 35px;'>fel</span>,j,html-keyboard-response,2420,2.1.0,1695820,Mchoho,,,probe,j,congruent,vertical_con_2,1,,,,tickmark,0,1,incongruent,no_punishment_incongruent,0.9258333333333332
556.0,<span style='font-size: 35px;'>jobb</span>,g,html-keyboard-response,2425,2.1.0,1697692,Mchoho,,,probe,g,congruent,horizontal_con_2,1,,,,neutral,0,1,congruent,no_punishment_incongruent,0.9258333333333332
591.0,<span style='font-size: 35px;'>le</span>,n,html-keyboard-response,2430,2.1.0,1699751,Mchoho,,,probe,n,incongruent,vertical_incon_1,1,,,,neutral,0,1,congruent,no_punishment_incongruent,0.9258333333333332
556.0,<span style='font-size: 35px;'>jobb</span>,g,html-keyboard-response,2435,2.1.0,1701648,Mchoho,,,probe,g,congruent,horizontal_con_2,1,,,,tickmark,0,1,incongruent,no_punishment_incongruent,0.9258333333333332
660.0,<span style='font-size: 35px;'>le</span>,n,html-keyboard-response,2440,2.1.0,1703623,Mchoho,,,probe,n,congruent,vertical_con_1,1,,,,neutral,0,1,congruent,no_punishment_incongruent,0.9258333333333332
472.0,<span style='font-size: 35px;'>jobb</span>,g,html-keyboard-response,2445,2.1.0,1705455,Mchoho,,,probe,g,congruent,horizontal_con_2,1,,,,neutral,0,1,congruent,no_punishment_incongruent,0.9258333333333332
491.0,<span style='font-size: 35px;'>le</span>,n,html-keyboard-response,2450,2.1.0,1707267,Mchoho,,,probe,n,congruent,vertical_con_1,1,,,,neutral,0,1,congruent,no_punishment_incongruent,0.9258333333333332
682.0,<span style='font-size: 35px;'>bal</span>,f,html-keyboard-response,2455,2.1.0,1709360,Mchoho,,,probe,f,incongruent,horizontal_incon_2,1,,,,neutral,0,1,congruent,no_punishment_incongruent,0.9258333333333332
538.0,<span style='font-size: 35px;'>fel</span>,j,html-keyboard-response,2460,2.1.0,1711392,Mchoho,,,probe,j,congruent,vertical_con_2,1,,,,tickmark,0,1,incongruent,no_punishment_incongruent,0.9258333333333332
484.0,<span style='font-size: 35px;'>jobb</span>,g,html-keyboard-response,2465,2.1.0,1713205,Mchoho,,,probe,g,congruent,horizontal_con_2,1,,,,neutral,0,1,congruent,no_punishment_incongruent,0.9258333333333332
515.0,<span style='font-size: 35px;'>fel</span>,j,html-keyboard-response,2470,2.1.0,1715197,Mchoho,,,probe,j,congruent,vertical_con_2,1,,,,neutral,0,1,congruent,no_punishment_incongruent,0.9258333333333332
493.0,<span style='font-size: 35px;'>bal</span>,f,html-keyboard-response,2475,2.1.0,1717058,Mchoho,,,probe,f,congruent,horizontal_con_1,1,,,,neutral,0,1,congruent,no_punishment_incongruent,0.9258333333333332
506.0,<span style='font-size: 35px;'>fel</span>,j,html-keyboard-response,2480,2.1.0,1718974,Mchoho,,,probe,j,congruent,vertical_con_2,1,,,,neutral,0,1,congruent,no_punishment_incongruent,0.9258333333333332
585.0,<span style='font-size: 35px;'>bal</span>,f,html-keyboard-response,2485,2.1.0,1720937,Mchoho,,,probe,f,incongruent,horizontal_incon_2,1,,,,neutral,0,1,congruent,no_punishment_incongruent,0.9258333333333332
569.0,<span style='font-size: 35px;'>le</span>,n,html-keyboard-response,2490,2.1.0,1722852,Mchoho,,,probe,n,incongruent,vertical_incon_1,1,,,,tickmark,0,1,incongruent,no_punishment_incongruent,0.9258333333333332
540.0,<span style='font-size: 35px;'>jobb</span>,g,html-keyboard-response,2495,2.1.0,1724720,Mchoho,,,probe,g,congruent,horizontal_con_2,1,,,,tickmark,0,1,incongruent,no_punishment_incongruent,0.9258333333333332
,<span style='font-size: 35px;'>fel</span>,,html-keyboard-response,2500,2.1.0,1727054,Mchoho,,,probe,j,incongruent,vertical_incon_2,0,,,,neutral,0,1,congruent,no_punishment_incongruent,0.9258333333333332
745.0,<span style='font-size: 35px;'>jobb</span>,g,html-keyboard-response,2505,2.1.0,1729300,Mchoho,,,probe,g,incongruent,horizontal_incon_1,1,,,,visual_punishment,0,0,incongruent,no_punishment_incongruent,0.9258333333333332
646.0,<span style='font-size: 35px;'>fel</span>,f,html-keyboard-response,2510,2.1.0,1731266,Mchoho,,,probe,j,incongruent,vertical_incon_2,0,,,,tickmark,0,1,incongruent,no_punishment_incongruent,0.9258333333333332
913.0,<span style='font-size: 35px;'>bal</span>,f,html-keyboard-response,2515,2.1.0,1733665,Mchoho,,,probe,f,incongruent,horizontal_incon_2,1,,,,visual_punishment,0,0,incongruent,no_punishment_incongruent,0.9258333333333332
757.0,<span style='font-size: 35px;'>fel</span>,j,html-keyboard-response,2520,2.1.0,1735746,Mchoho,,,probe,j,incongruent,vertical_incon_2,1,,,,tickmark,0,1,incongruent,no_punishment_incongruent,0.9258333333333332
783.0,<span style='font-size: 35px;'>jobb</span>,g,html-keyboard-response,2525,2.1.0,1737888,Mchoho,,,probe,g,congruent,horizontal_con_2,1,,,,tickmark,0,1,incongruent,no_punishment_incongruent,0.9258333333333332
744.0,<span style='font-size: 35px;'>fel</span>,j,html-keyboard-response,2530,2.1.0,1740134,Mchoho,,,probe,j,incongruent,vertical_incon_2,1,,,,neutral,0,1,congruent,no_punishment_incongruent,0.9258333333333332
517.0,<span style='font-size: 35px;'>bal</span>,f,html-keyboard-response,2535,2.1.0,1742100,Mchoho,,,probe,f,congruent,horizontal_con_1,1,,,,tickmark,0,1,incongruent,no_punishment_incongruent,0.9258333333333332
540.0,<span style='font-size: 35px;'>fel</span>,j,html-keyboard-response,2540,2.1.0,1743990,Mchoho,,,probe,j,incongruent,vertical_incon_2,1,,,,neutral,0,1,congruent,no_punishment_incongruent,0.9258333333333332
630.0,<span style='font-size: 35px;'>jobb</span>,g,html-keyboard-response,2545,2.1.0,1746060,Mchoho,,,probe,g,incongruent,horizontal_incon_1,1,,,,tickmark,0,1,incongruent,no_punishment_incongruent,0.9258333333333332
636.0,<span style='font-size: 35px;'>le</span>,n,html-keyboard-response,2550,2.1.0,1748117,Mchoho,,,probe,n,incongruent,vertical_incon_1,1,,,,tickmark,0,1,incongruent,no_punishment_incongruent,0.9258333333333332
649.0,<span style='font-size: 35px;'>bal</span>,f,html-keyboard-response,2555,2.1.0,1750226,Mchoho,,,probe,f,incongruent,horizontal_incon_2,1,,,,tickmark,0,1,incongruent,no_punishment_incongruent,0.9258333333333332
665.0,<span style='font-size: 35px;'>le</span>,n,html-keyboard-response,2560,2.1.0,1752315,Mchoho,,,probe,n,incongruent,vertical_incon_1,1,,,,tickmark,0,1,incongruent,no_punishment_incongruent,0.9258333333333332
497.0,<span style='font-size: 35px;'>bal</span>,f,html-keyboard-response,2565,2.1.0,1754232,Mchoho,,,probe,f,congruent,horizontal_con_1,1,,,,tickmark,0,1,incongruent,no_punishment_incongruent,0.9258333333333332
768.0,<span style='font-size: 35px;'>le</span>,n,html-keyboard-response,2570,2.1.0,1756430,Mchoho,,,probe,n,incongruent,vertical_incon_1,1,,,,neutral,0,1,congruent,no_punishment_incongruent,0.9258333333333332
733.0,<span style='font-size: 35px;'>jobb</span>,g,html-keyboard-response,2575,2.1.0,1758643,Mchoho,,,probe,g,incongruent,horizontal_incon_1,1,,,,tickmark,0,1,incongruent,no_punishment_incongruent,0.9258333333333332
662.0,<span style='font-size: 35px;'>fel</span>,j,html-keyboard-response,2580,2.1.0,1760796,Mchoho,,,probe,j,congruent,vertical_con_2,1,,,,tickmark,0,1,incongruent,no_punishment_incongruent,0.9258333333333332
646.0,<span style='font-size: 35px;'>bal</span>,f,html-keyboard-response,2585,2.1.0,1762895,Mchoho,,,probe,f,congruent,horizontal_con_1,1,,,,neutral,0,1,congruent,no_punishment_incongruent,0.9258333333333332
556.0,<span style='font-size: 35px;'>le</span>,n,html-keyboard-response,2590,2.1.0,1764916,Mchoho,,,probe,n,congruent,vertical_con_1,1,,,,neutral,0,1,congruent,no_punishment_incongruent,0.9258333333333332
808.0,<span style='font-size: 35px;'>bal</span>,f,html-keyboard-response,2595,2.1.0,1767088,Mchoho,,,probe,f,incongruent,horizontal_incon_2,1,,,,neutral,0,1,congruent,no_punishment_incongruent,0.9258333333333332
497.0,<span style='font-size: 35px;'>le</span>,n,html-keyboard-response,2600,2.1.0,1768963,Mchoho,,,probe,n,congruent,vertical_con_1,1,,,,tickmark,0,1,incongruent,no_punishment_incongruent,0.9258333333333332
683.0,<span style='font-size: 35px;'>jobb</span>,g,html-keyboard-response,2605,2.1.0,1771142,Mchoho,,,probe,g,incongruent,horizontal_incon_1,1,,,,neutral,0,1,congruent,no_punishment_incongruent,0.9258333333333332
490.0,<span style='font-size: 35px;'>fel</span>,j,html-keyboard-response,2610,2.1.0,1773005,Mchoho,,,probe,j,congruent,vertical_con_2,1,,,,tickmark,0,1,incongruent,no_punishment_incongruent,0.9258333333333332
726.0,<span style='font-size: 35px;'>jobb</span>,g,html-keyboard-response,2615,2.1.0,1775127,Mchoho,,,probe,g,congruent,horizontal_con_2,1,,,,neutral,0,1,congruent,no_punishment_incongruent,0.9258333333333332
792.0,<span style='font-size: 35px;'>le</span>,n,html-keyboard-response,2620,2.1.0,1777312,Mchoho,,,probe,n,incongruent,vertical_incon_1,1,,,,neutral,0,1,congruent,no_punishment_incongruent,0.9258333333333332
539.0,<span style='font-size: 35px;'>jobb</span>,g,html-keyboard-response,2625,2.1.0,1779268,Mchoho,,,probe,g,congruent,horizontal_con_2,1,,,,tickmark,0,1,incongruent,no_punishment_incongruent,0.9258333333333332
694.0,<span style='font-size: 35px;'>fel</span>,j,html-keyboard-response,2630,2.1.0,1781410,Mchoho,,,probe,j,incongruent,vertical_incon_2,1,,,,neutral,0,1,congruent,no_punishment_incongruent,0.9258333333333332
629.0,<span style='font-size: 35px;'>jobb</span>,g,html-keyboard-response,2635,2.1.0,1783521,Mchoho,,,probe,g,incongruent,horizontal_incon_1,1,,,,tickmark,0,1,incongruent,no_punishment_incongruent,0.9258333333333332
554.0,<span style='font-size: 35px;'>le</span>,n,html-keyboard-response,2640,2.1.0,1785562,Mchoho,,,probe,n,incongruent,vertical_incon_1,1,,,,tickmark,0,1,incongruent,no_punishment_incongruent,0.9258333333333332
588.0,<span style='font-size: 35px;'>jobb</span>,g,html-keyboard-response,2645,2.1.0,1787538,Mchoho,,,probe,g,incongruent,horizontal_incon_1,1,,,,tickmark,0,1,incongruent,no_punishment_incongruent,0.9258333333333332
563.0,<span style='font-size: 35px;'>le</span>,n,html-keyboard-response,2650,2.1.0,1789410,Mchoho,,,probe,n,incongruent,vertical_incon_1,1,,,,tickmark,0,1,incongruent,no_punishment_incongruent,0.9258333333333332
571.0,<span style='font-size: 35px;'>jobb</span>,g,html-keyboard-response,2655,2.1.0,1791483,Mchoho,,,probe,g,incongruent,horizontal_incon_1,1,,,,tickmark,0,1,incongruent,no_punishment_incongruent,0.9258333333333332
437.0,<span style='font-size: 35px;'>fel</span>,j,html-keyboard-response,2660,2.1.0,1793263,Mchoho,,,probe,j,congruent,vertical_con_2,1,,,,tickmark,0,1,incongruent,no_punishment_incongruent,0.9258333333333332
564.0,<span style='font-size: 35px;'>jobb</span>,g,html-keyboard-response,2665,2.1.0,1795266,Mchoho,,,probe,g,incongruent,horizontal_incon_1,1,,,,neutral,0,1,congruent,no_punishment_incongruent,0.9258333333333332
572.0,<span style='font-size: 35px;'>le</span>,n,html-keyboard-response,2670,2.1.0,1797185,Mchoho,,,probe,n,congruent,vertical_con_1,1,,,,tickmark,0,1,incongruent,no_punishment_incongruent,0.9258333333333332
580.0,<span style='font-size: 35px;'>bal</span>,f,html-keyboard-response,2675,2.1.0,1799222,Mchoho,,,probe,f,incongruent,horizontal_incon_2,1,,,,neutral,0,1,congruent,no_punishment_incongruent,0.9258333333333332
601.0,<span style='font-size: 35px;'>le</span>,n,html-keyboard-response,2680,2.1.0,1801300,Mchoho,,,probe,n,incongruent,vertical_incon_1,1,,,,tickmark,0,1,incongruent,no_punishment_incongruent,0.9258333333333332
526.0,<span style='font-size: 35px;'>bal</span>,f,html-keyboard-response,2685,2.1.0,1803153,Mchoho,,,probe,f,congruent,horizontal_con_1,1,,,,tickmark,0,1,incongruent,no_punishment_incongruent,0.9258333333333332
572.0,<span style='font-size: 35px;'>fel</span>,j,html-keyboard-response,2690,2.1.0,1805094,Mchoho,,,probe,j,incongruent,vertical_incon_2,1,,,,neutral,0,1,congruent,no_punishment_incongruent,0.9258333333333332
552.0,<span style='font-size: 35px;'>bal</span>,f,html-keyboard-response,2695,2.1.0,1807112,Mchoho,,,probe,f,incongruent,horizontal_incon_2,1,,,,tickmark,0,1,incongruent,no_punishment_incongruent,0.9258333333333332
539.0,<span style='font-size: 35px;'>le</span>,n,html-keyboard-response,2700,2.1.0,1809123,Mchoho,,,probe,n,congruent,vertical_con_1,1,,,,tickmark,0,1,incongruent,no_punishment_incongruent,0.9258333333333332
608.0,<span style='font-size: 35px;'>bal</span>,f,html-keyboard-response,2705,2.1.0,1811184,Mchoho,,,probe,f,congruent,horizontal_con_1,1,,,,neutral,0,1,congruent,no_punishment_incongruent,0.9258333333333332
564.0,<span style='font-size: 35px;'>fel</span>,j,html-keyboard-response,2710,2.1.0,1813059,Mchoho,,,probe,j,incongruent,vertical_incon_2,1,,,,neutral,0,1,congruent,no_punishment_incongruent,0.9258333333333332
465.0,<span style='font-size: 35px;'>jobb</span>,g,html-keyboard-response,2715,2.1.0,1814868,Mchoho,,,probe,g,congruent,horizontal_con_2,1,,,,tickmark,0,1,incongruent,no_punishment_incongruent,0.9258333333333332
549.0,<span style='font-size: 35px;'>fel</span>,j,html-keyboard-response,2720,2.1.0,1816803,Mchoho,,,probe,j,incongruent,vertical_incon_2,1,,,,neutral,0,1,congruent,no_punishment_incongruent,0.9258333333333332
526.0,<span style='font-size: 35px;'>jobb</span>,g,html-keyboard-response,2725,2.1.0,1818740,Mchoho,,,probe,g,congruent,horizontal_con_2,1,,,,tickmark,0,1,incongruent,no_punishment_incongruent,0.9258333333333332
565.0,<span style='font-size: 35px;'>le</span>,n,html-keyboard-response,2730,2.1.0,1820742,Mchoho,,,probe,n,incongruent,vertical_incon_1,1,,,,neutral,0,1,congruent,no_punishment_incongruent,0.9258333333333332
478.0,<span style='font-size: 35px;'>bal</span>,f,html-keyboard-response,2735,2.1.0,1822547,Mchoho,,,probe,f,congruent,horizontal_con_1,1,,,,tickmark,0,1,incongruent,no_punishment_incongruent,0.9258333333333332
587.0,<span style='font-size: 35px;'>fel</span>,j,html-keyboard-response,2740,2.1.0,1824535,Mchoho,,,probe,j,congruent,vertical_con_2,1,,,,neutral,0,1,congruent,no_punishment_incongruent,0.9258333333333332
