"rt","stimulus","response","trial_type","trial_index","plugin_version","time_elapsed","subj_code","success","question_order","task","correct_response","congruency","name","correct","slider_start","feedback_type"
"2707","
            <img src=""Experimental material/University_logo.png"" alt=University Logo"" style=""width: 300px; display: block; margin: auto;"">
            <h2>Üdvözlünk a Metatudomány kutatócsoport vizsgálatában!</h2>
                <p>Egy tudományos kutatásban veszel részt, amelynek vezetője Bognár Miklós, az ELTE Affektív Pszichológia Tanszékének kutatója. 
                A kutatás célja megvizsgálni, hogy miként hatnak a büntetés által kiváltott negatív motivációs állapotok a kognitív kontrollra.</p>
                <h3>Részvétel</h3>
                <p>A kutatásban való részvétel teljesen önkéntes. A vizsgálatot bármikor indoklás nélkül megszakíthatod. Ha bármilyen kérdésed, észrevételed vagy problémád van a kutatással kapcsolatban, írj Bognár Miklósnak a <a href=""mailto:bognar.miklos@ppk.elte.hu"">bognar.miklos@ppk.elte.hu</a> címre.</p>","0","html-button-response","0","2.1.0","2713","Mchoho","","","","","","","","",""
"2325","","","fullscreen","1","2.1.0","6058","Mchoho","true","","","","","","","",""
"2752","<h2 style=""text-align: center;"">Adatkezelési tájékoztató</h2>
            <p style=""text-align: justify; max-width: 800px; margin: auto;"">Szigorúan bizalmasan kezelünk minden olyan személyes információt, amit a kutatás keretén belül gyűjtünk össze. 
                A kutatás során nyert adatokat kóddal ellátva biztonságos számítógépeken tároljuk. A kutatás során nyert adatokat összegezzük. 
                Az ELTE PPK Affektív Pszichológia Tanszék Metatudomány Kutatócsoportja, mint adatkezelő, fenti személyes adataidat bizalmasan kezeli, más adatkezelőnek, adatfeldolgozónak nem adja át.
                E tényállás részleteit a <a href=""http://metasciencelab.elte.hu/hozzajarulas-adatkezeleshez/"" target=_blank"">""Hozzájárulás adatkezeléshez""</a> c. dokumentum tartalmazza.</p>

            <p>Az adatkezelésről szóló szabályzásról részletesebben pedig itt tájékozódhatsz:
                <a href=""https://ppk.elte.hu/file/Hozzajarulas_adatkezeleshez_melleklet_2018.pdf"" target=""_blank"">Hozzájárulás adatkezeléshez melléklet</a></p>
            <p>A kutatás során nyert személyes adataidat arra használjuk fel, hogy regisztrálhassuk a részvételért járó kurzuspontokat. 
            Az azonosítására alkalmas adatokat (NEPTUN kód) ezután törölni fogjuk. A kezelt adatok a következők:</p>

                <ul>
                    <li>NEPTUN-kód</li>
                    <li>Életkor</li>
                    <li>Nem</li>
                    <li>Iskolai végzettség</li>
                </ul>
            <p>Válaszaid nem lesznek semmilyen módon hozzád köthetők. Az anonimizált adataidat más kutatókkal megosztjuk.</p>
            <p><strong>Kérlek, amennyiben egyetértesz a fenti feltételekkel, és hozzájárulsz a kutatásban való részvételhez, kattints az ""Igen"" gombra.</strong></p>","0","html-button-response","2","2.1.0","8812","Mchoho","","","","","","","","",""
"2480","<h2>Beleegyező nyilatkozat</h2>
                <p>Felelősségem teljes tudatában kijelentem, hogy a mai napon az Eötvös Loránd Tudományegyetem, Bognár Miklós kutatásvezető által végzett vizsgálatban</p>
                 <ul>
                    <li>önként veszek részt.</li>
                    <li>a vizsgálat jellegéről, annak megkezdése előtt kielégítő tájékoztatást kaptam.</li>
                    <li>nem szenvedek semmilyen pszichiátriai betegségben.</li>
                    <li>a vizsgálat idején alkohol vagy drogok hatása alatt nem állok.</li>
                 </ul>

                <p>Tudomásul veszem, hogy az azonosításomra alkalmas személyi adataimat bizalmasan kezelik.
                    Hozzájárulok ahhoz, hogy a vizsgálat során a rólam felvett, személyem azonosítására nem alkalmas adatok más kutatók számára is hozzáférhetők legyenek.
                    Fenntartom a jogot arra, hogy a vizsgálat során annak folytatásától bármikor elállhassak. 
                    Ilyen esetben a rólam addig felvett adatokat törölni kell.</p>
.
                <p>Tudomásul veszem, hogy csak a teljesen befejezett kitöltésért kapok pontot a <em>Pszichológiai kísérletben és tudományos aktivitásban való részvétel</em> nevű kurzuson.</p>

                <p><strong>A kutatásban való részvételem körülményeiről részletes tájékoztatást kaptam, a feltételekkel egyetértek. 
                    Amennyiben egyetértesz a fenti feltételekkel, kattints az ""Igen"" gombra.</strong></p>","0","html-button-response","3","2.1.0","11294","Mchoho","","","","","","","","",""
"9240","","{""age"":""20"",""neptun"":""EZCE8F""}","survey-text","4","2.1.0","20539","Mchoho","","","","","","","","",""
"5830","","{""education"":""Gimnázium"",""gender"":""Nő""}","survey-multi-choice","5","2.1.0","26372","Mchoho","","[0,1]","","","","","","",""
"132661","<h2>Instrukciók</h2>
                <p>Ebben a kísérletben arra vagyunk kíváncsiak, hogy miként befolyásolja a büntetés a konfliktusfeldolgozást. 
                A kísérlet során iránymegjelöléseket fogsz olvasni (FEL, LE, JOBB, BAL). Először egy prime inger fog megjelenni a képernyőn, amin egy irány (pl.: „FEL”) lesz olvasható egymás alatt háromszor. 
                Ezt követően megjelenik a célinger, ami vagy azonos („FEL”) vagy ellentétes („LE”) lesz az előtte bemutatott iránnyal.
                A feladatod az lesz, hogy minél gyorsabban és pontosabban eltaláld a célinger irányát a hozzárendelt billentyű megnyomásával.</p> 
                <p>Kérlek helyezd a billentyűzetre a kezedet a képen látható módon:</p>
                <p>A bal középső ujjadat az „f”-re, a mutató ujjadat a „g”-re, míg a jobb mutató ujjadat az „n”-re, a középső ujjadat pedig a „j”-re!</p>
                <img src=""Experimental material/instruction_pic.png"" alt=""Hand placemante instructions"" style=""width: 40%; height: 40%;"">
                <p style=""text-align: center;""><em>Amennyiben készen állsz a kísérlet megkezdésére, nyomj meg egy tetszőleges billentyűt!</em></p>"," ","html-keyboard-response","6","2.1.0","159035","Mchoho","","","","","","","","",""
"4845","<h2>Gyakorló blokk</h2>
            <p>A kísérlet megkezdése előtt egy rövid gyakorló blokk következik. Ebben a blokkban nem vonunk le garast a hibás válaszokért, azonban törekedj a minél gyorsabb és pontosabb válaszadásra! 
            Ha készen állsz, nyomj meg egy tetszőleges billentyűt a kezdéshez.</p>","n","html-keyboard-response","7","2.1.0","163882","Mchoho","","","","","","","","",""
"null","<div style=""font-size:60px;"">+</div>","null","html-keyboard-response","8","2.1.0","164315","Mchoho","","","fixation","","","","","",""
"null","<span style='font-size: 35px;'>jobb<br>jobb<br>jobb</span>","null","html-keyboard-response","9","2.1.0","164454","Mchoho","","","prime","","","","","",""
"null"," ","null","html-keyboard-response","10","2.1.0","164500","Mchoho","","","blank","","","","","",""
"624","<span style='font-size: 35px;'>bal</span>","f","html-keyboard-response","11","2.1.0","165125","Mchoho","","","probe","f","incongruent","practice","true","",""
"null","<div style='font-size: 35px; color: black;'>✔</div>","null","html-keyboard-response","12","2.1.0","165829","Mchoho","","","","","","","","",""
"null","<div style=""font-size:60px;"">+</div>","null","html-keyboard-response","13","2.1.0","166337","Mchoho","","","fixation","","","","","",""
"null","<span style='font-size: 35px;'>jobb<br>jobb<br>jobb</span>","null","html-keyboard-response","14","2.1.0","166475","Mchoho","","","prime","","","","","",""
"null"," ","null","html-keyboard-response","15","2.1.0","166521","Mchoho","","","blank","","","","","",""
"418","<span style='font-size: 35px;'>jobb</span>","g","html-keyboard-response","16","2.1.0","166940","Mchoho","","","probe","g","congruent","practice","true","",""
"null","<div style='font-size: 35px; color: black;'>✔</div>","null","html-keyboard-response","17","2.1.0","167650","Mchoho","","","","","","","","",""
"null","<div style=""font-size:60px;"">+</div>","null","html-keyboard-response","18","2.1.0","168144","Mchoho","","","fixation","","","","","",""
"null","<span style='font-size: 35px;'>le<br>le<br>le</span>","null","html-keyboard-response","19","2.1.0","168283","Mchoho","","","prime","","","","","",""
"null"," ","null","html-keyboard-response","20","2.1.0","168319","Mchoho","","","blank","","","","","",""
"540","<span style='font-size: 35px;'>fel</span>","j","html-keyboard-response","21","2.1.0","168860","Mchoho","","","probe","j","incongruent","practice","true","",""
"null","<div style='font-size: 35px; color: black;'>✔</div>","null","html-keyboard-response","22","2.1.0","169568","Mchoho","","","","","","","","",""
"null","<div style=""font-size:60px;"">+</div>","null","html-keyboard-response","23","2.1.0","170076","Mchoho","","","fixation","","","","","",""
"null","<span style='font-size: 35px;'>fel<br>fel<br>fel</span>","null","html-keyboard-response","24","2.1.0","170215","Mchoho","","","prime","","","","","",""
"null"," ","null","html-keyboard-response","25","2.1.0","170262","Mchoho","","","blank","","","","","",""
"477","<span style='font-size: 35px;'>le</span>","j","html-keyboard-response","26","2.1.0","170741","Mchoho","","","probe","n","incongruent","practice","false","",""
"null","<div style=""font-size: 35px; color: black;"">✘</div>","null","html-keyboard-response","27","2.1.0","171448","Mchoho","","","","","","","","",""
"null","<div style=""font-size:60px;"">+</div>","null","html-keyboard-response","28","2.1.0","171896","Mchoho","","","fixation","","","","","",""
"null","<span style='font-size: 35px;'>bal<br>bal<br>bal</span>","null","html-keyboard-response","29","2.1.0","172035","Mchoho","","","prime","","","","","",""
"null"," ","null","html-keyboard-response","30","2.1.0","172081","Mchoho","","","blank","","","","","",""
"525","<span style='font-size: 35px;'>bal</span>","g","html-keyboard-response","31","2.1.0","172607","Mchoho","","","probe","f","congruent","practice","false","",""
"null","<div style=""font-size: 35px; color: black;"">✘</div>","null","html-keyboard-response","32","2.1.0","173315","Mchoho","","","","","","","","",""
"null","<div style=""font-size:60px;"">+</div>","null","html-keyboard-response","33","2.1.0","173808","Mchoho","","","fixation","","","","","",""
"null","<span style='font-size: 35px;'>bal<br>bal<br>bal</span>","null","html-keyboard-response","34","2.1.0","173947","Mchoho","","","prime","","","","","",""
"null"," ","null","html-keyboard-response","35","2.1.0","173994","Mchoho","","","blank","","","","","",""
"512","<span style='font-size: 35px;'>jobb</span>","g","html-keyboard-response","36","2.1.0","174507","Mchoho","","","probe","g","incongruent","practice","true","",""
"null","<div style='font-size: 35px; color: black;'>✔</div>","null","html-keyboard-response","37","2.1.0","175214","Mchoho","","","","","","","","",""
"null","<div style=""font-size:60px;"">+</div>","null","html-keyboard-response","38","2.1.0","175707","Mchoho","","","fixation","","","","","",""
"null","<span style='font-size: 35px;'>fel<br>fel<br>fel</span>","null","html-keyboard-response","39","2.1.0","175847","Mchoho","","","prime","","","","","",""
"null"," ","null","html-keyboard-response","40","2.1.0","175893","Mchoho","","","blank","","","","","",""
"455","<span style='font-size: 35px;'>fel</span>","j","html-keyboard-response","41","2.1.0","176349","Mchoho","","","probe","j","congruent","practice","true","",""
"null","<div style='font-size: 35px; color: black;'>✔</div>","null","html-keyboard-response","42","2.1.0","177056","Mchoho","","","","","","","","",""
"null","<div style=""font-size:60px;"">+</div>","null","html-keyboard-response","43","2.1.0","177571","Mchoho","","","fixation","","","","","",""
"null","<span style='font-size: 35px;'>le<br>le<br>le</span>","null","html-keyboard-response","44","2.1.0","177711","Mchoho","","","prime","","","","","",""
"null"," ","null","html-keyboard-response","45","2.1.0","177758","Mchoho","","","blank","","","","","",""
"370","<span style='font-size: 35px;'>le</span>","n","html-keyboard-response","46","2.1.0","178129","Mchoho","","","probe","n","congruent","practice","true","",""
"null","<div style='font-size: 35px; color: black;'>✔</div>","null","html-keyboard-response","47","2.1.0","178834","Mchoho","","","","","","","","",""
"null","<div style=""font-size:60px;"">+</div>","null","html-keyboard-response","48","2.1.0","179404","Mchoho","","","fixation","","","","","",""
"null","<span style='font-size: 35px;'>le<br>le<br>le</span>","null","html-keyboard-response","49","2.1.0","179544","Mchoho","","","prime","","","","","",""
"null"," ","null","html-keyboard-response","50","2.1.0","179590","Mchoho","","","blank","","","","","",""
"413","<span style='font-size: 35px;'>le</span>","n","html-keyboard-response","51","2.1.0","180004","Mchoho","","","probe","n","congruent","practice","true","",""
"null","<div style='font-size: 35px; color: black;'>✔</div>","null","html-keyboard-response","52","2.1.0","180717","Mchoho","","","","","","","","",""
"null","<div style=""font-size:60px;"">+</div>","null","html-keyboard-response","53","2.1.0","181242","Mchoho","","","fixation","","","","","",""
"null","<span style='font-size: 35px;'>le<br>le<br>le</span>","null","html-keyboard-response","54","2.1.0","181380","Mchoho","","","prime","","","","","",""
"null"," ","null","html-keyboard-response","55","2.1.0","181427","Mchoho","","","blank","","","","","",""
"451","<span style='font-size: 35px;'>fel</span>","j","html-keyboard-response","56","2.1.0","181879","Mchoho","","","probe","j","incongruent","practice","true","",""
"null","<div style='font-size: 35px; color: black;'>✔</div>","null","html-keyboard-response","57","2.1.0","182584","Mchoho","","","","","","","","",""
"null","<div style=""font-size:60px;"">+</div>","null","html-keyboard-response","58","2.1.0","183184","Mchoho","","","fixation","","","","","",""
"null","<span style='font-size: 35px;'>fel<br>fel<br>fel</span>","null","html-keyboard-response","59","2.1.0","183324","Mchoho","","","prime","","","","","",""
"null"," ","null","html-keyboard-response","60","2.1.0","183370","Mchoho","","","blank","","","","","",""
"427","<span style='font-size: 35px;'>fel</span>","j","html-keyboard-response","61","2.1.0","183798","Mchoho","","","probe","j","congruent","practice","true","",""
"null","<div style='font-size: 35px; color: black;'>✔</div>","null","html-keyboard-response","62","2.1.0","184514","Mchoho","","","","","","","","",""
"null","<div style=""font-size:60px;"">+</div>","null","html-keyboard-response","63","2.1.0","184977","Mchoho","","","fixation","","","","","",""
"null","<span style='font-size: 35px;'>fel<br>fel<br>fel</span>","null","html-keyboard-response","64","2.1.0","185116","Mchoho","","","prime","","","","","",""
"null"," ","null","html-keyboard-response","65","2.1.0","185152","Mchoho","","","blank","","","","","",""
"510","<span style='font-size: 35px;'>le</span>","n","html-keyboard-response","66","2.1.0","185663","Mchoho","","","probe","n","incongruent","practice","true","",""
"null","<div style='font-size: 35px; color: black;'>✔</div>","null","html-keyboard-response","67","2.1.0","186380","Mchoho","","","","","","","","",""
"null","<div style=""font-size:60px;"">+</div>","null","html-keyboard-response","68","2.1.0","186856","Mchoho","","","fixation","","","","","",""
"null","<span style='font-size: 35px;'>bal<br>bal<br>bal</span>","null","html-keyboard-response","69","2.1.0","186995","Mchoho","","","prime","","","","","",""
"null"," ","null","html-keyboard-response","70","2.1.0","187041","Mchoho","","","blank","","","","","",""
"591","<span style='font-size: 35px;'>jobb</span>","g","html-keyboard-response","71","2.1.0","187633","Mchoho","","","probe","g","incongruent","practice","true","",""
"null","<div style='font-size: 35px; color: black;'>✔</div>","null","html-keyboard-response","72","2.1.0","188338","Mchoho","","","","","","","","",""
"null","<div style=""font-size:60px;"">+</div>","null","html-keyboard-response","73","2.1.0","188754","Mchoho","","","fixation","","","","","",""
"null","<span style='font-size: 35px;'>jobb<br>jobb<br>jobb</span>","null","html-keyboard-response","74","2.1.0","188893","Mchoho","","","prime","","","","","",""
"null"," ","null","html-keyboard-response","75","2.1.0","188939","Mchoho","","","blank","","","","","",""
"478","<span style='font-size: 35px;'>bal</span>","f","html-keyboard-response","76","2.1.0","189418","Mchoho","","","probe","f","incongruent","practice","true","",""
"null","<div style='font-size: 35px; color: black;'>✔</div>","null","html-keyboard-response","77","2.1.0","190125","Mchoho","","","","","","","","",""
"null","<div style=""font-size:60px;"">+</div>","null","html-keyboard-response","78","2.1.0","190712","Mchoho","","","fixation","","","","","",""
"null","<span style='font-size: 35px;'>bal<br>bal<br>bal</span>","null","html-keyboard-response","79","2.1.0","190850","Mchoho","","","prime","","","","","",""
"null"," ","null","html-keyboard-response","80","2.1.0","190885","Mchoho","","","blank","","","","","",""
"547","<span style='font-size: 35px;'>bal</span>","g","html-keyboard-response","81","2.1.0","191433","Mchoho","","","probe","f","congruent","practice","false","",""
"null","<div style=""font-size: 35px; color: black;"">✘</div>","null","html-keyboard-response","82","2.1.0","192145","Mchoho","","","","","","","","",""
"null","<div style=""font-size:60px;"">+</div>","null","html-keyboard-response","83","2.1.0","192748","Mchoho","","","fixation","","","","","",""
"null","<span style='font-size: 35px;'>jobb<br>jobb<br>jobb</span>","null","html-keyboard-response","84","2.1.0","192888","Mchoho","","","prime","","","","","",""
"null"," ","null","html-keyboard-response","85","2.1.0","192933","Mchoho","","","blank","","","","","",""
"479","<span style='font-size: 35px;'>jobb</span>","g","html-keyboard-response","86","2.1.0","193414","Mchoho","","","probe","g","congruent","practice","true","",""
"null","<div style='font-size: 35px; color: black;'>✔</div>","null","html-keyboard-response","87","2.1.0","194120","Mchoho","","","","","","","","",""
"null","<div style=""font-size:60px;"">+</div>","null","html-keyboard-response","88","2.1.0","194646","Mchoho","","","fixation","","","","","",""
"null","<span style='font-size: 35px;'>fel<br>fel<br>fel</span>","null","html-keyboard-response","89","2.1.0","194785","Mchoho","","","prime","","","","","",""
"null"," ","null","html-keyboard-response","90","2.1.0","194831","Mchoho","","","blank","","","","","",""
"399","<span style='font-size: 35px;'>le</span>","j","html-keyboard-response","91","2.1.0","195231","Mchoho","","","probe","n","incongruent","practice","false","",""
"null","<div style=""font-size: 35px; color: black;"">✘</div>","null","html-keyboard-response","92","2.1.0","195940","Mchoho","","","","","","","","",""
"null","<div style=""font-size:60px;"">+</div>","null","html-keyboard-response","93","2.1.0","196372","Mchoho","","","fixation","","","","","",""
"null","<span style='font-size: 35px;'>jobb<br>jobb<br>jobb</span>","null","html-keyboard-response","94","2.1.0","196511","Mchoho","","","prime","","","","","",""
"null"," ","null","html-keyboard-response","95","2.1.0","196557","Mchoho","","","blank","","","","","",""
"671","<span style='font-size: 35px;'>bal</span>","f","html-keyboard-response","96","2.1.0","197228","Mchoho","","","probe","f","incongruent","practice","true","",""
"null","<div style='font-size: 35px; color: black;'>✔</div>","null","html-keyboard-response","97","2.1.0","197931","Mchoho","","","","","","","","",""
"null","<div style=""font-size:60px;"">+</div>","null","html-keyboard-response","98","2.1.0","198472","Mchoho","","","fixation","","","","","",""
"null","<span style='font-size: 35px;'>le<br>le<br>le</span>","null","html-keyboard-response","99","2.1.0","198610","Mchoho","","","prime","","","","","",""
"null"," ","null","html-keyboard-response","100","2.1.0","198655","Mchoho","","","blank","","","","","",""
"475","<span style='font-size: 35px;'>fel</span>","j","html-keyboard-response","101","2.1.0","199131","Mchoho","","","probe","j","incongruent","practice","true","",""
"null","<div style='font-size: 35px; color: black;'>✔</div>","null","html-keyboard-response","102","2.1.0","199845","Mchoho","","","","","","","","",""
"null","<div style=""font-size:60px;"">+</div>","null","html-keyboard-response","103","2.1.0","200352","Mchoho","","","fixation","","","","","",""
"null","<span style='font-size: 35px;'>fel<br>fel<br>fel</span>","null","html-keyboard-response","104","2.1.0","200491","Mchoho","","","prime","","","","","",""
"null"," ","null","html-keyboard-response","105","2.1.0","200537","Mchoho","","","blank","","","","","",""
"544","<span style='font-size: 35px;'>fel</span>","j","html-keyboard-response","106","2.1.0","201082","Mchoho","","","probe","j","congruent","practice","true","",""
"null","<div style='font-size: 35px; color: black;'>✔</div>","null","html-keyboard-response","107","2.1.0","201787","Mchoho","","","","","","","","",""
"null","<div style=""font-size:60px;"">+</div>","null","html-keyboard-response","108","2.1.0","202235","Mchoho","","","fixation","","","","","",""
"null","<span style='font-size: 35px;'>le<br>le<br>le</span>","null","html-keyboard-response","109","2.1.0","202374","Mchoho","","","prime","","","","","",""
"null"," ","null","html-keyboard-response","110","2.1.0","202420","Mchoho","","","blank","","","","","",""
"342","<span style='font-size: 35px;'>le</span>","n","html-keyboard-response","111","2.1.0","202764","Mchoho","","","probe","n","congruent","practice","true","",""
"null","<div style='font-size: 35px; color: black;'>✔</div>","null","html-keyboard-response","112","2.1.0","203471","Mchoho","","","","","","","","",""
"null","<div style=""font-size:60px;"">+</div>","null","html-keyboard-response","113","2.1.0","204011","Mchoho","","","fixation","","","","","",""
"null","<span style='font-size: 35px;'>bal<br>bal<br>bal</span>","null","html-keyboard-response","114","2.1.0","204149","Mchoho","","","prime","","","","","",""
"null"," ","null","html-keyboard-response","115","2.1.0","204184","Mchoho","","","blank","","","","","",""
"615","<span style='font-size: 35px;'>jobb</span>","g","html-keyboard-response","116","2.1.0","204800","Mchoho","","","probe","g","incongruent","practice","true","",""
"null","<div style='font-size: 35px; color: black;'>✔</div>","null","html-keyboard-response","117","2.1.0","205510","Mchoho","","","","","","","","",""
"null","<div style=""font-size:60px;"">+</div>","null","html-keyboard-response","118","2.1.0","206051","Mchoho","","","fixation","","","","","",""
"null","<span style='font-size: 35px;'>bal<br>bal<br>bal</span>","null","html-keyboard-response","119","2.1.0","206190","Mchoho","","","prime","","","","","",""
"null"," ","null","html-keyboard-response","120","2.1.0","206237","Mchoho","","","blank","","","","","",""
"575","<span style='font-size: 35px;'>bal</span>","g","html-keyboard-response","121","2.1.0","206812","Mchoho","","","probe","f","congruent","practice","false","",""
"null","<div style=""font-size: 35px; color: black;"">✘</div>","null","html-keyboard-response","122","2.1.0","207519","Mchoho","","","","","","","","",""
"null","<div style=""font-size:60px;"">+</div>","null","html-keyboard-response","123","2.1.0","208046","Mchoho","","","fixation","","","","","",""
"null","<span style='font-size: 35px;'>jobb<br>jobb<br>jobb</span>","null","html-keyboard-response","124","2.1.0","208185","Mchoho","","","prime","","","","","",""
"null"," ","null","html-keyboard-response","125","2.1.0","208231","Mchoho","","","blank","","","","","",""
"390","<span style='font-size: 35px;'>jobb</span>","g","html-keyboard-response","126","2.1.0","208621","Mchoho","","","probe","g","congruent","practice","true","",""
"null","<div style='font-size: 35px; color: black;'>✔</div>","null","html-keyboard-response","127","2.1.0","209325","Mchoho","","","","","","","","",""
"null","<div style=""font-size:60px;"">+</div>","null","html-keyboard-response","128","2.1.0","209851","Mchoho","","","fixation","","","","","",""
"null","<span style='font-size: 35px;'>bal<br>bal<br>bal</span>","null","html-keyboard-response","129","2.1.0","209991","Mchoho","","","prime","","","","","",""
"null"," ","null","html-keyboard-response","130","2.1.0","210038","Mchoho","","","blank","","","","","",""
"506","<span style='font-size: 35px;'>bal</span>","g","html-keyboard-response","131","2.1.0","210546","Mchoho","","","probe","f","congruent","practice","false","",""
"null","<div style=""font-size: 35px; color: black;"">✘</div>","null","html-keyboard-response","132","2.1.0","211258","Mchoho","","","","","","","","",""
"null","<div style=""font-size:60px;"">+</div>","null","html-keyboard-response","133","2.1.0","211704","Mchoho","","","fixation","","","","","",""
"null","<span style='font-size: 35px;'>jobb<br>jobb<br>jobb</span>","null","html-keyboard-response","134","2.1.0","211843","Mchoho","","","prime","","","","","",""
"null"," ","null","html-keyboard-response","135","2.1.0","211889","Mchoho","","","blank","","","","","",""
"507","<span style='font-size: 35px;'>bal</span>","f","html-keyboard-response","136","2.1.0","212398","Mchoho","","","probe","f","incongruent","practice","true","",""
"null","<div style='font-size: 35px; color: black;'>✔</div>","null","html-keyboard-response","137","2.1.0","213108","Mchoho","","","","","","","","",""
"null","<div style=""font-size:60px;"">+</div>","null","html-keyboard-response","138","2.1.0","213586","Mchoho","","","fixation","","","","","",""
"null","<span style='font-size: 35px;'>le<br>le<br>le</span>","null","html-keyboard-response","139","2.1.0","213725","Mchoho","","","prime","","","","","",""
"null"," ","null","html-keyboard-response","140","2.1.0","213771","Mchoho","","","blank","","","","","",""
"376","<span style='font-size: 35px;'>le</span>","n","html-keyboard-response","141","2.1.0","214148","Mchoho","","","probe","n","congruent","practice","true","",""
"null","<div style='font-size: 35px; color: black;'>✔</div>","null","html-keyboard-response","142","2.1.0","214859","Mchoho","","","","","","","","",""
"null","<div style=""font-size:60px;"">+</div>","null","html-keyboard-response","143","2.1.0","215308","Mchoho","","","fixation","","","","","",""
"null","<span style='font-size: 35px;'>le<br>le<br>le</span>","null","html-keyboard-response","144","2.1.0","215446","Mchoho","","","prime","","","","","",""
"null"," ","null","html-keyboard-response","145","2.1.0","215492","Mchoho","","","blank","","","","","",""
"469","<span style='font-size: 35px;'>fel</span>","j","html-keyboard-response","146","2.1.0","215962","Mchoho","","","probe","j","incongruent","practice","true","",""
"null","<div style='font-size: 35px; color: black;'>✔</div>","null","html-keyboard-response","147","2.1.0","216667","Mchoho","","","","","","","","",""
"null","<div style=""font-size:60px;"">+</div>","null","html-keyboard-response","148","2.1.0","217223","Mchoho","","","fixation","","","","","",""
"null","<span style='font-size: 35px;'>fel<br>fel<br>fel</span>","null","html-keyboard-response","149","2.1.0","217362","Mchoho","","","prime","","","","","",""
"null"," ","null","html-keyboard-response","150","2.1.0","217408","Mchoho","","","blank","","","","","",""
"590","<span style='font-size: 35px;'>le</span>","n","html-keyboard-response","151","2.1.0","217999","Mchoho","","","probe","n","incongruent","practice","true","",""
"null","<div style='font-size: 35px; color: black;'>✔</div>","null","html-keyboard-response","152","2.1.0","218704","Mchoho","","","","","","","","",""
"null","<div style=""font-size:60px;"">+</div>","null","html-keyboard-response","153","2.1.0","219184","Mchoho","","","fixation","","","","","",""
"null","<span style='font-size: 35px;'>fel<br>fel<br>fel</span>","null","html-keyboard-response","154","2.1.0","219323","Mchoho","","","prime","","","","","",""
"null"," ","null","html-keyboard-response","155","2.1.0","219369","Mchoho","","","blank","","","","","",""
"510","<span style='font-size: 35px;'>fel</span>","j","html-keyboard-response","156","2.1.0","219881","Mchoho","","","probe","j","congruent","practice","true","",""
"null","<div style='font-size: 35px; color: black;'>✔</div>","null","html-keyboard-response","157","2.1.0","220593","Mchoho","","","","","","","","",""
"null","<div style=""font-size:60px;"">+</div>","null","html-keyboard-response","158","2.1.0","221054","Mchoho","","","fixation","","","","","",""
"null","<span style='font-size: 35px;'>bal<br>bal<br>bal</span>","null","html-keyboard-response","159","2.1.0","221193","Mchoho","","","prime","","","","","",""
"null"," ","null","html-keyboard-response","160","2.1.0","221239","Mchoho","","","blank","","","","","",""
"550","<span style='font-size: 35px;'>jobb</span>","g","html-keyboard-response","161","2.1.0","221790","Mchoho","","","probe","g","incongruent","practice","true","",""
"null","<div style='font-size: 35px; color: black;'>✔</div>","null","html-keyboard-response","162","2.1.0","222491","Mchoho","","","","","","","","",""
"null","<div style=""font-size:60px;"">+</div>","null","html-keyboard-response","163","2.1.0","223078","Mchoho","","","fixation","","","","","",""
"null","<span style='font-size: 35px;'>jobb<br>jobb<br>jobb</span>","null","html-keyboard-response","164","2.1.0","223216","Mchoho","","","prime","","","","","",""
"null"," ","null","html-keyboard-response","165","2.1.0","223250","Mchoho","","","blank","","","","","",""
"513","<span style='font-size: 35px;'>jobb</span>","g","html-keyboard-response","166","2.1.0","223764","Mchoho","","","probe","g","congruent","practice","true","",""
"null","<div style='font-size: 35px; color: black;'>✔</div>","null","html-keyboard-response","167","2.1.0","224467","Mchoho","","","","","","","","",""
"5732","<p style=""text-align: center; max-width: 800px; margin: auto; font-size: 24px""> Még egy rövid gyakorló blokk következik.
        Ha készen állsz, nyomj meg egy tetszőleges billentyűt a kezdéshez.</p>","n","html-keyboard-response","168","2.1.0","230201","Mchoho","","","","","","","","",""
"null","<div style=""font-size:60px;"">+</div>","null","html-keyboard-response","169","2.1.0","230647","Mchoho","","","fixation","","","","","",""
"null","<span style='font-size: 35px;'>jobb<br>jobb<br>jobb</span>","null","html-keyboard-response","170","2.1.0","230786","Mchoho","","","prime","","","","","",""
"null"," ","null","html-keyboard-response","171","2.1.0","230833","Mchoho","","","blank","","","","","",""
"702","<span style='font-size: 35px;'>bal</span>","f","html-keyboard-response","172","2.1.0","231537","Mchoho","","","probe","f","incongruent","practice","true","",""
"null","<div style='font-size: 35px; color: black;'>✔</div>","null","html-keyboard-response","173","2.1.0","232252","Mchoho","","","","","","","","",""
"null","<div style=""font-size:60px;"">+</div>","null","html-keyboard-response","174","2.1.0","232775","Mchoho","","","fixation","","","","","",""
"null","<span style='font-size: 35px;'>le<br>le<br>le</span>","null","html-keyboard-response","175","2.1.0","232914","Mchoho","","","prime","","","","","",""
"null"," ","null","html-keyboard-response","176","2.1.0","232948","Mchoho","","","blank","","","","","",""
"378","<span style='font-size: 35px;'>le</span>","n","html-keyboard-response","177","2.1.0","233327","Mchoho","","","probe","n","congruent","practice","true","",""
"null","<div style='font-size: 35px; color: black;'>✔</div>","null","html-keyboard-response","178","2.1.0","234041","Mchoho","","","","","","","","",""
"null","<div style=""font-size:60px;"">+</div>","null","html-keyboard-response","179","2.1.0","234598","Mchoho","","","fixation","","","","","",""
"null","<span style='font-size: 35px;'>fel<br>fel<br>fel</span>","null","html-keyboard-response","180","2.1.0","234738","Mchoho","","","prime","","","","","",""
"null"," ","null","html-keyboard-response","181","2.1.0","234784","Mchoho","","","blank","","","","","",""
"333","<span style='font-size: 35px;'>fel</span>","j","html-keyboard-response","182","2.1.0","235118","Mchoho","","","probe","j","congruent","practice","true","",""
"null","<div style='font-size: 35px; color: black;'>✔</div>","null","html-keyboard-response","183","2.1.0","235834","Mchoho","","","","","","","","",""
"null","<div style=""font-size:60px;"">+</div>","null","html-keyboard-response","184","2.1.0","236280","Mchoho","","","fixation","","","","","",""
"null","<span style='font-size: 35px;'>le<br>le<br>le</span>","null","html-keyboard-response","185","2.1.0","236419","Mchoho","","","prime","","","","","",""
"null"," ","null","html-keyboard-response","186","2.1.0","236465","Mchoho","","","blank","","","","","",""
"713","<span style='font-size: 35px;'>fel</span>","n","html-keyboard-response","187","2.1.0","237179","Mchoho","","","probe","j","incongruent","practice","false","",""
"null","<div style=""font-size: 35px; color: black;"">✘</div>","null","html-keyboard-response","188","2.1.0","237883","Mchoho","","","","","","","","",""
"null","<div style=""font-size:60px;"">+</div>","null","html-keyboard-response","189","2.1.0","238394","Mchoho","","","fixation","","","","","",""
"null","<span style='font-size: 35px;'>jobb<br>jobb<br>jobb</span>","null","html-keyboard-response","190","2.1.0","238533","Mchoho","","","prime","","","","","",""
"null"," ","null","html-keyboard-response","191","2.1.0","238580","Mchoho","","","blank","","","","","",""
"462","<span style='font-size: 35px;'>jobb</span>","g","html-keyboard-response","192","2.1.0","239043","Mchoho","","","probe","g","congruent","practice","true","",""
"null","<div style='font-size: 35px; color: black;'>✔</div>","null","html-keyboard-response","193","2.1.0","239754","Mchoho","","","","","","","","",""
"null","<div style=""font-size:60px;"">+</div>","null","html-keyboard-response","194","2.1.0","240296","Mchoho","","","fixation","","","","","",""
"null","<span style='font-size: 35px;'>bal<br>bal<br>bal</span>","null","html-keyboard-response","195","2.1.0","240434","Mchoho","","","prime","","","","","",""
"null"," ","null","html-keyboard-response","196","2.1.0","240480","Mchoho","","","blank","","","","","",""
"710","<span style='font-size: 35px;'>jobb</span>","f","html-keyboard-response","197","2.1.0","241191","Mchoho","","","probe","g","incongruent","practice","false","",""
"null","<div style=""font-size: 35px; color: black;"">✘</div>","null","html-keyboard-response","198","2.1.0","241900","Mchoho","","","","","","","","",""
"null","<div style=""font-size:60px;"">+</div>","null","html-keyboard-response","199","2.1.0","242458","Mchoho","","","fixation","","","","","",""
"null","<span style='font-size: 35px;'>fel<br>fel<br>fel</span>","null","html-keyboard-response","200","2.1.0","242597","Mchoho","","","prime","","","","","",""
"null"," ","null","html-keyboard-response","201","2.1.0","242633","Mchoho","","","blank","","","","","",""
"513","<span style='font-size: 35px;'>le</span>","n","html-keyboard-response","202","2.1.0","243147","Mchoho","","","probe","n","incongruent","practice","true","",""
"null","<div style='font-size: 35px; color: black;'>✔</div>","null","html-keyboard-response","203","2.1.0","243863","Mchoho","","","","","","","","",""
"null","<div style=""font-size:60px;"">+</div>","null","html-keyboard-response","204","2.1.0","244402","Mchoho","","","fixation","","","","","",""
"null","<span style='font-size: 35px;'>bal<br>bal<br>bal</span>","null","html-keyboard-response","205","2.1.0","244541","Mchoho","","","prime","","","","","",""
"null"," ","null","html-keyboard-response","206","2.1.0","244587","Mchoho","","","blank","","","","","",""
"667","<span style='font-size: 35px;'>bal</span>","f","html-keyboard-response","207","2.1.0","245255","Mchoho","","","probe","f","congruent","practice","true","",""
"null","<div style='font-size: 35px; color: black;'>✔</div>","null","html-keyboard-response","208","2.1.0","245958","Mchoho","","","","","","","","",""
"null","<div style=""font-size:60px;"">+</div>","null","html-keyboard-response","209","2.1.0","246377","Mchoho","","","fixation","","","","","",""
"null","<span style='font-size: 35px;'>bal<br>bal<br>bal</span>","null","html-keyboard-response","210","2.1.0","246515","Mchoho","","","prime","","","","","",""
"null"," ","null","html-keyboard-response","211","2.1.0","246561","Mchoho","","","blank","","","","","",""
"505","<span style='font-size: 35px;'>jobb</span>","g","html-keyboard-response","212","2.1.0","247066","Mchoho","","","probe","g","incongruent","practice","true","",""
"null","<div style='font-size: 35px; color: black;'>✔</div>","null","html-keyboard-response","213","2.1.0","247768","Mchoho","","","","","","","","",""
"null","<div style=""font-size:60px;"">+</div>","null","html-keyboard-response","214","2.1.0","248276","Mchoho","","","fixation","","","","","",""
"null","<span style='font-size: 35px;'>le<br>le<br>le</span>","null","html-keyboard-response","215","2.1.0","248415","Mchoho","","","prime","","","","","",""
"null"," ","null","html-keyboard-response","216","2.1.0","248461","Mchoho","","","blank","","","","","",""
"530","<span style='font-size: 35px;'>fel</span>","j","html-keyboard-response","217","2.1.0","248992","Mchoho","","","probe","j","incongruent","practice","true","",""
"null","<div style='font-size: 35px; color: black;'>✔</div>","null","html-keyboard-response","218","2.1.0","249695","Mchoho","","","","","","","","",""
"null","<div style=""font-size:60px;"">+</div>","null","html-keyboard-response","219","2.1.0","250144","Mchoho","","","fixation","","","","","",""
"null","<span style='font-size: 35px;'>jobb<br>jobb<br>jobb</span>","null","html-keyboard-response","220","2.1.0","250283","Mchoho","","","prime","","","","","",""
"null"," ","null","html-keyboard-response","221","2.1.0","250330","Mchoho","","","blank","","","","","",""
"532","<span style='font-size: 35px;'>bal</span>","f","html-keyboard-response","222","2.1.0","250863","Mchoho","","","probe","f","incongruent","practice","true","",""
"null","<div style='font-size: 35px; color: black;'>✔</div>","null","html-keyboard-response","223","2.1.0","251566","Mchoho","","","","","","","","",""
"null","<div style=""font-size:60px;"">+</div>","null","html-keyboard-response","224","2.1.0","252120","Mchoho","","","fixation","","","","","",""
"null","<span style='font-size: 35px;'>le<br>le<br>le</span>","null","html-keyboard-response","225","2.1.0","252259","Mchoho","","","prime","","","","","",""
"null"," ","null","html-keyboard-response","226","2.1.0","252305","Mchoho","","","blank","","","","","",""
"317","<span style='font-size: 35px;'>le</span>","n","html-keyboard-response","227","2.1.0","252623","Mchoho","","","probe","n","congruent","practice","true","",""
"null","<div style='font-size: 35px; color: black;'>✔</div>","null","html-keyboard-response","228","2.1.0","253326","Mchoho","","","","","","","","",""
"null","<div style=""font-size:60px;"">+</div>","null","html-keyboard-response","229","2.1.0","253853","Mchoho","","","fixation","","","","","",""
"null","<span style='font-size: 35px;'>jobb<br>jobb<br>jobb</span>","null","html-keyboard-response","230","2.1.0","253993","Mchoho","","","prime","","","","","",""
"null"," ","null","html-keyboard-response","231","2.1.0","254038","Mchoho","","","blank","","","","","",""
"433","<span style='font-size: 35px;'>jobb</span>","g","html-keyboard-response","232","2.1.0","254472","Mchoho","","","probe","g","congruent","practice","true","",""
"null","<div style='font-size: 35px; color: black;'>✔</div>","null","html-keyboard-response","233","2.1.0","255179","Mchoho","","","","","","","","",""
"null","<div style=""font-size:60px;"">+</div>","null","html-keyboard-response","234","2.1.0","255689","Mchoho","","","fixation","","","","","",""
"null","<span style='font-size: 35px;'>fel<br>fel<br>fel</span>","null","html-keyboard-response","235","2.1.0","255827","Mchoho","","","prime","","","","","",""
"null"," ","null","html-keyboard-response","236","2.1.0","255874","Mchoho","","","blank","","","","","",""
"347","<span style='font-size: 35px;'>fel</span>","j","html-keyboard-response","237","2.1.0","256222","Mchoho","","","probe","j","congruent","practice","true","",""
"null","<div style='font-size: 35px; color: black;'>✔</div>","null","html-keyboard-response","238","2.1.0","256935","Mchoho","","","","","","","","",""
"null","<div style=""font-size:60px;"">+</div>","null","html-keyboard-response","239","2.1.0","257352","Mchoho","","","fixation","","","","","",""
"null","<span style='font-size: 35px;'>fel<br>fel<br>fel</span>","null","html-keyboard-response","240","2.1.0","257492","Mchoho","","","prime","","","","","",""
"null"," ","null","html-keyboard-response","241","2.1.0","257538","Mchoho","","","blank","","","","","",""
"392","<span style='font-size: 35px;'>le</span>","n","html-keyboard-response","242","2.1.0","257931","Mchoho","","","probe","n","incongruent","practice","true","",""
"null","<div style='font-size: 35px; color: black;'>✔</div>","null","html-keyboard-response","243","2.1.0","258635","Mchoho","","","","","","","","",""
"null","<div style=""font-size:60px;"">+</div>","null","html-keyboard-response","244","2.1.0","259145","Mchoho","","","fixation","","","","","",""
"null","<span style='font-size: 35px;'>bal<br>bal<br>bal</span>","null","html-keyboard-response","245","2.1.0","259283","Mchoho","","","prime","","","","","",""
"null"," ","null","html-keyboard-response","246","2.1.0","259329","Mchoho","","","blank","","","","","",""
"434","<span style='font-size: 35px;'>bal</span>","f","html-keyboard-response","247","2.1.0","259765","Mchoho","","","probe","f","congruent","practice","true","",""
"null","<div style='font-size: 35px; color: black;'>✔</div>","null","html-keyboard-response","248","2.1.0","260469","Mchoho","","","","","","","","",""
"null","<div style=""font-size:60px;"">+</div>","null","html-keyboard-response","249","2.1.0","261025","Mchoho","","","fixation","","","","","",""
"null","<span style='font-size: 35px;'>jobb<br>jobb<br>jobb</span>","null","html-keyboard-response","250","2.1.0","261164","Mchoho","","","prime","","","","","",""
"null"," ","null","html-keyboard-response","251","2.1.0","261211","Mchoho","","","blank","","","","","",""
"660","<span style='font-size: 35px;'>bal</span>","f","html-keyboard-response","252","2.1.0","261872","Mchoho","","","probe","f","incongruent","practice","true","",""
"null","<div style='font-size: 35px; color: black;'>✔</div>","null","html-keyboard-response","253","2.1.0","262581","Mchoho","","","","","","","","",""
"null","<div style=""font-size:60px;"">+</div>","null","html-keyboard-response","254","2.1.0","263060","Mchoho","","","fixation","","","","","",""
"null","<span style='font-size: 35px;'>fel<br>fel<br>fel</span>","null","html-keyboard-response","255","2.1.0","263201","Mchoho","","","prime","","","","","",""
"null"," ","null","html-keyboard-response","256","2.1.0","263246","Mchoho","","","blank","","","","","",""
"426","<span style='font-size: 35px;'>le</span>","j","html-keyboard-response","257","2.1.0","263673","Mchoho","","","probe","n","incongruent","practice","false","",""
"null","<div style=""font-size: 35px; color: black;"">✘</div>","null","html-keyboard-response","258","2.1.0","264376","Mchoho","","","","","","","","",""
"null","<div style=""font-size:60px;"">+</div>","null","html-keyboard-response","259","2.1.0","264947","Mchoho","","","fixation","","","","","",""
"null","<span style='font-size: 35px;'>le<br>le<br>le</span>","null","html-keyboard-response","260","2.1.0","265086","Mchoho","","","prime","","","","","",""
"null"," ","null","html-keyboard-response","261","2.1.0","265132","Mchoho","","","blank","","","","","",""
"422","<span style='font-size: 35px;'>le</span>","n","html-keyboard-response","262","2.1.0","265555","Mchoho","","","probe","n","congruent","practice","true","",""
"null","<div style='font-size: 35px; color: black;'>✔</div>","null","html-keyboard-response","263","2.1.0","266260","Mchoho","","","","","","","","",""
"null","<div style=""font-size:60px;"">+</div>","null","html-keyboard-response","264","2.1.0","266846","Mchoho","","","fixation","","","","","",""
"null","<span style='font-size: 35px;'>bal<br>bal<br>bal</span>","null","html-keyboard-response","265","2.1.0","266984","Mchoho","","","prime","","","","","",""
"null"," ","null","html-keyboard-response","266","2.1.0","267032","Mchoho","","","blank","","","","","",""
"519","<span style='font-size: 35px;'>bal</span>","f","html-keyboard-response","267","2.1.0","267552","Mchoho","","","probe","f","congruent","practice","true","",""
"null","<div style='font-size: 35px; color: black;'>✔</div>","null","html-keyboard-response","268","2.1.0","268269","Mchoho","","","","","","","","",""
"null","<div style=""font-size:60px;"">+</div>","null","html-keyboard-response","269","2.1.0","268855","Mchoho","","","fixation","","","","","",""
"null","<span style='font-size: 35px;'>le<br>le<br>le</span>","null","html-keyboard-response","270","2.1.0","268993","Mchoho","","","prime","","","","","",""
"null"," ","null","html-keyboard-response","271","2.1.0","269040","Mchoho","","","blank","","","","","",""
"531","<span style='font-size: 35px;'>fel</span>","j","html-keyboard-response","272","2.1.0","269572","Mchoho","","","probe","j","incongruent","practice","true","",""
"null","<div style='font-size: 35px; color: black;'>✔</div>","null","html-keyboard-response","273","2.1.0","270278","Mchoho","","","","","","","","",""
"null","<div style=""font-size:60px;"">+</div>","null","html-keyboard-response","274","2.1.0","270758","Mchoho","","","fixation","","","","","",""
"null","<span style='font-size: 35px;'>bal<br>bal<br>bal</span>","null","html-keyboard-response","275","2.1.0","270896","Mchoho","","","prime","","","","","",""
"null"," ","null","html-keyboard-response","276","2.1.0","270931","Mchoho","","","blank","","","","","",""
"741","<span style='font-size: 35px;'>jobb</span>","g","html-keyboard-response","277","2.1.0","271673","Mchoho","","","probe","g","incongruent","practice","true","",""
"null","<div style='font-size: 35px; color: black;'>✔</div>","null","html-keyboard-response","278","2.1.0","272379","Mchoho","","","","","","","","",""
"null","<div style=""font-size:60px;"">+</div>","null","html-keyboard-response","279","2.1.0","272905","Mchoho","","","fixation","","","","","",""
"null","<span style='font-size: 35px;'>fel<br>fel<br>fel</span>","null","html-keyboard-response","280","2.1.0","273044","Mchoho","","","prime","","","","","",""
"null"," ","null","html-keyboard-response","281","2.1.0","273091","Mchoho","","","blank","","","","","",""
"458","<span style='font-size: 35px;'>fel</span>","j","html-keyboard-response","282","2.1.0","273550","Mchoho","","","probe","j","congruent","practice","true","",""
"null","<div style='font-size: 35px; color: black;'>✔</div>","null","html-keyboard-response","283","2.1.0","274264","Mchoho","","","","","","","","",""
"null","<div style=""font-size:60px;"">+</div>","null","html-keyboard-response","284","2.1.0","274774","Mchoho","","","fixation","","","","","",""
"null","<span style='font-size: 35px;'>jobb<br>jobb<br>jobb</span>","null","html-keyboard-response","285","2.1.0","274912","Mchoho","","","prime","","","","","",""
"null"," ","null","html-keyboard-response","286","2.1.0","274946","Mchoho","","","blank","","","","","",""
"534","<span style='font-size: 35px;'>jobb</span>","g","html-keyboard-response","287","2.1.0","275481","Mchoho","","","probe","g","congruent","practice","true","",""
"null","<div style='font-size: 35px; color: black;'>✔</div>","null","html-keyboard-response","288","2.1.0","276193","Mchoho","","","","","","","","",""
"4819","<p style=""text-align: center; max-width: 800px; margin: auto; font-size: 24px"">A gyakorló rész véget ért, a kísérleti blokkok következnek.
        Ha készen állsz, nyomj meg egy tetszőleges billentyűt a kezdéshez.</p>","n","html-keyboard-response","289","2.1.0","281014","Mchoho","","","","","","","","",""
"9254","<h3>A következő kifejezések érzéseket, állapotokat írnak le.</h3> 
                <p style=""text-align: center; max-width: 800px; margin: auto; font-size: 20px"">
                Jelöld be azt a számot, ami a legjobban kifejezi, hogy jelen pillanatban hogyan érzed magad. Nyomd meg a ""Tovább"" gombot a kezdéshez.</p>","0","html-button-response","290","2.1.0","290269","Mchoho","","","","","","","","",""
"7601","","{""kiborulás"":1}","survey-likert","291","2.1.0","297878","Mchoho","","[0]","","","","","","",""
"3360","","{""elszántság"":3}","survey-likert","292","2.1.0","301240","Mchoho","","[0]","","","","","","",""
"3855","","{""ingerlékenység"":1}","survey-likert","293","2.1.0","305098","Mchoho","","[0]","","","","","","",""
"2574","","{""rémület"":0}","survey-likert","294","2.1.0","307673","Mchoho","","[0]","","","","","","",""
"3458","","{""elhivatottság"":4}","survey-likert","295","2.1.0","311132","Mchoho","","[0]","","","","","","",""
"4130","","{""bűntudat"":1}","survey-likert","296","2.1.0","315264","Mchoho","","[0]","","","","","","",""
"3666","","{""feszültség"":1}","survey-likert","297","2.1.0","318932","Mchoho","","[0]","","","","","","",""
"2559","","{""érdeklődés"":3}","survey-likert","298","2.1.0","321493","Mchoho","","[0]","","","","","","",""
"4603","","{""figyelem"":3}","survey-likert","299","2.1.0","326097","Mchoho","","[0]","","","","","","",""
"2258","","{""lelkesség"":3}","survey-likert","300","2.1.0","328357","Mchoho","","[0]","","","","","","",""
"2886","","{""élénkség"":2}","survey-likert","301","2.1.0","331246","Mchoho","","[0]","","","","","","",""
"3389","","{""büszkeség"":2}","survey-likert","302","2.1.0","334636","Mchoho","","[0]","","","","","","",""
"8782","","{""ellenségesség"":0}","survey-likert","303","2.1.0","343419","Mchoho","","[0]","","","","","","",""
"3575","","{""zaklatottság"":0}","survey-likert","304","2.1.0","346996","Mchoho","","[0]","","","","","","",""
"2247","","{""idegesség"":1}","survey-likert","305","2.1.0","349243","Mchoho","","[0]","","","","","","",""
"3574","","{""szégyen"":0}","survey-likert","306","2.1.0","352819","Mchoho","","[0]","","","","","","",""
"3247","","{""erő"":2}","survey-likert","307","2.1.0","356067","Mchoho","","[0]","","","","","","",""
"3223","","{""félelem"":1}","survey-likert","308","2.1.0","359291","Mchoho","","[0]","","","","","","",""
"3991","","{""éberség"":2}","survey-likert","309","2.1.0","363284","Mchoho","","[0]","","","","","","",""
"3759","","{""izgalom"":2}","survey-likert","310","2.1.0","367044","Mchoho","","[0]","","","","","","",""
"15108","<p>Kérlek, jelöld be 0 (egyáltalán nem) és 100 (teljes mértékben) között, hogy milyen mértékben tapasztaltál
       negatív érzéseket amikor a próbák után negatív visszajelzést (✘) kaptál!</p>","39","html-slider-response","311","2.1.0","382164","Mchoho","","","","","","","","50",""
"24429","<p style=""text-align: justify; max-width: 800px; margin: auto; font-size: 24px"">
        <h3>Kezdődik az első blokk.</h3>
        <p>Ebben a kondícióban garaslevonás érhet a <strong>teljesítményedtől függetlenül</strong>. Törekedj a minél gyorsabb és pontosabb válaszadásra.
        Ha készen állsz, tedd a bal középső ujjadat az „f”-re, a mutató ujjadat a „g”-re, a jobb mutató ujjadat az „n”-re, a középső ujjadat pedig a „j”-re, majd nyomj le egy gombot.</p>","n","html-keyboard-response","312","2.1.0","406594","Mchoho","","","","","","","","",""
"null","<div style=""font-size:60px;"">+</div>","null","html-keyboard-response","313","2.1.0","407123","Mchoho","","","fixation","","","","","",""
"null","<span style='font-size: 35px;'>le</span><br><span style='font-size: 35px;'>le</span><br><span style='font-size: 35px;'>le</span>","null","html-keyboard-response","314","2.1.0","407261","Mchoho","","","prime","","","","","",""
"null"," ","null","html-keyboard-response","315","2.1.0","407307","Mchoho","","","blank","","","","","",""
"546","<span style='font-size: 35px;'>fel</span>","j","html-keyboard-response","316","2.1.0","407854","Mchoho","","","probe","j","incongruent","vertical_incon_2","true","",""
"null","<div style='font-size: 35px; color: black; font-weight: bold;'>&#11036</div>","null","html-keyboard-response","317","2.1.0","408558","Mchoho","","","","","","","","","random_punishment_random"
"null","<div style=""font-size:60px;"">+</div>","null","html-keyboard-response","318","2.1.0","409145","Mchoho","","","fixation","","","","","",""
"null","<span style='font-size: 35px;'>bal</span><br><span style='font-size: 35px;'>bal</span><br><span style='font-size: 35px;'>bal</span>","null","html-keyboard-response","319","2.1.0","409285","Mchoho","","","prime","","","","","",""
"null"," ","null","html-keyboard-response","320","2.1.0","409332","Mchoho","","","blank","","","","","",""
"574","<span style='font-size: 35px;'>bal</span>","f","html-keyboard-response","321","2.1.0","409907","Mchoho","","","probe","f","congruent","horizontal_con_1","true","",""
"null","<div style='font-size: 35px; color: black; font-weight: bold;'>&#11036</div>","null","html-keyboard-response","322","2.1.0","410616","Mchoho","","","","","","","","","random_punishment_random"
"null","<div style=""font-size:60px;"">+</div>","null","html-keyboard-response","323","2.1.0","411222","Mchoho","","","fixation","","","","","",""
"null","<span style='font-size: 35px;'>fel</span><br><span style='font-size: 35px;'>fel</span><br><span style='font-size: 35px;'>fel</span>","null","html-keyboard-response","324","2.1.0","411361","Mchoho","","","prime","","","","","",""
"null"," ","null","html-keyboard-response","325","2.1.0","411407","Mchoho","","","blank","","","","","",""
"594","<span style='font-size: 35px;'>fel</span>","j","html-keyboard-response","326","2.1.0","412001","Mchoho","","","probe","j","congruent","vertical_con_2","true","",""
"null","<div style='font-size: 35px; color: black; font-weight: bold;'>&#11036</div>","null","html-keyboard-response","327","2.1.0","412703","Mchoho","","","","","","","","","random_punishment_random"
"null","<div style=""font-size:60px;"">+</div>","null","html-keyboard-response","328","2.1.0","413229","Mchoho","","","fixation","","","","","",""
"null","<span style='font-size: 35px;'>bal</span><br><span style='font-size: 35px;'>bal</span><br><span style='font-size: 35px;'>bal</span>","null","html-keyboard-response","329","2.1.0","413368","Mchoho","","","prime","","","","","",""
"null"," ","null","html-keyboard-response","330","2.1.0","413414","Mchoho","","","blank","","","","","",""
"482","<span style='font-size: 35px;'>bal</span>","f","html-keyboard-response","331","2.1.0","413898","Mchoho","","","probe","f","congruent","horizontal_con_1","true","",""
"null","<div style='font-size: 35px; color: black;'>✘<br>5 garast veszítettél</div>","null","html-keyboard-response","332","2.1.0","414606","Mchoho","","","","","","","","","random_punishment_random"
"null","<div style=""font-size:60px;"">+</div>","null","html-keyboard-response","333","2.1.0","415176","Mchoho","","","fixation","","","","","",""
"null","<span style='font-size: 35px;'>le</span><br><span style='font-size: 35px;'>le</span><br><span style='font-size: 35px;'>le</span>","null","html-keyboard-response","334","2.1.0","415315","Mchoho","","","prime","","","","","",""
"null"," ","null","html-keyboard-response","335","2.1.0","415362","Mchoho","","","blank","","","","","",""
"713","<span style='font-size: 35px;'>fel</span>","j","html-keyboard-response","336","2.1.0","416077","Mchoho","","","probe","j","incongruent","vertical_incon_2","true","",""
"null","<div style='font-size: 35px; color: black; font-weight: bold;'>&#11036</div>","null","html-keyboard-response","337","2.1.0","416784","Mchoho","","","","","","","","","random_punishment_random"
"null","<div style=""font-size:60px;"">+</div>","null","html-keyboard-response","338","2.1.0","417308","Mchoho","","","fixation","","","","","",""
"null","<span style='font-size: 35px;'>jobb</span><br><span style='font-size: 35px;'>jobb</span><br><span style='font-size: 35px;'>jobb</span>","null","html-keyboard-response","339","2.1.0","417446","Mchoho","","","prime","","","","","",""
"null"," ","null","html-keyboard-response","340","2.1.0","417493","Mchoho","","","blank","","","","","",""
"793","<span style='font-size: 35px;'>jobb</span>","g","html-keyboard-response","341","2.1.0","418286","Mchoho","","","probe","g","congruent","horizontal_con_2","true","",""
"null","<div style='font-size: 35px; color: black; font-weight: bold;'>&#11036</div>","null","html-keyboard-response","342","2.1.0","418997","Mchoho","","","","","","","","","random_punishment_random"
"null","<div style=""font-size:60px;"">+</div>","null","html-keyboard-response","343","2.1.0","419575","Mchoho","","","fixation","","","","","",""
"null","<span style='font-size: 35px;'>le</span><br><span style='font-size: 35px;'>le</span><br><span style='font-size: 35px;'>le</span>","null","html-keyboard-response","344","2.1.0","419713","Mchoho","","","prime","","","","","",""
"null"," ","null","html-keyboard-response","345","2.1.0","419760","Mchoho","","","blank","","","","","",""
"509","<span style='font-size: 35px;'>fel</span>","j","html-keyboard-response","346","2.1.0","420270","Mchoho","","","probe","j","incongruent","vertical_incon_2","true","",""
"null","<div style='font-size: 35px; color: black;'>✘<br>5 garast veszítettél</div>","null","html-keyboard-response","347","2.1.0","420984","Mchoho","","","","","","","","","random_punishment_random"
"null","<div style=""font-size:60px;"">+</div>","null","html-keyboard-response","348","2.1.0","421588","Mchoho","","","fixation","","","","","",""
"null","<span style='font-size: 35px;'>bal</span><br><span style='font-size: 35px;'>bal</span><br><span style='font-size: 35px;'>bal</span>","null","html-keyboard-response","349","2.1.0","421730","Mchoho","","","prime","","","","","",""
"null"," ","null","html-keyboard-response","350","2.1.0","421775","Mchoho","","","blank","","","","","",""
"null","<span style='font-size: 35px;'>jobb</span>","null","html-keyboard-response","351","2.1.0","422792","Mchoho","","","probe","g","incongruent","horizontal_incon_1","false","",""
"null","<div style='font-size: 35px; color: black; font-weight: bold;'>&#11036</div>","null","html-keyboard-response","352","2.1.0","423503","Mchoho","","","","","","","","","random_punishment_random"
"null","<div style=""font-size:60px;"">+</div>","null","html-keyboard-response","353","2.1.0","424030","Mchoho","","","fixation","","","","","",""
"null","<span style='font-size: 35px;'>fel</span><br><span style='font-size: 35px;'>fel</span><br><span style='font-size: 35px;'>fel</span>","null","html-keyboard-response","354","2.1.0","424170","Mchoho","","","prime","","","","","",""
"null"," ","null","html-keyboard-response","355","2.1.0","424216","Mchoho","","","blank","","","","","",""
"607","<span style='font-size: 35px;'>le</span>","n","html-keyboard-response","356","2.1.0","424825","Mchoho","","","probe","n","incongruent","vertical_incon_1","true","",""
"null","<div style='font-size: 35px; color: black; font-weight: bold;'>&#11036</div>","null","html-keyboard-response","357","2.1.0","425538","Mchoho","","","","","","","","","random_punishment_random"
"null","<div style=""font-size:60px;"">+</div>","null","html-keyboard-response","358","2.1.0","425971","Mchoho","","","fixation","","","","","",""
"null","<span style='font-size: 35px;'>jobb</span><br><span style='font-size: 35px;'>jobb</span><br><span style='font-size: 35px;'>jobb</span>","null","html-keyboard-response","359","2.1.0","426111","Mchoho","","","prime","","","","","",""
"null"," ","null","html-keyboard-response","360","2.1.0","426157","Mchoho","","","blank","","","","","",""
"605","<span style='font-size: 35px;'>bal</span>","f","html-keyboard-response","361","2.1.0","426763","Mchoho","","","probe","f","incongruent","horizontal_incon_2","true","",""
"null","<div style='font-size: 35px; color: black; font-weight: bold;'>&#11036</div>","null","html-keyboard-response","362","2.1.0","427472","Mchoho","","","","","","","","","random_punishment_random"
"null","<div style=""font-size:60px;"">+</div>","null","html-keyboard-response","363","2.1.0","427905","Mchoho","","","fixation","","","","","",""
"null","<span style='font-size: 35px;'>fel</span><br><span style='font-size: 35px;'>fel</span><br><span style='font-size: 35px;'>fel</span>","null","html-keyboard-response","364","2.1.0","428046","Mchoho","","","prime","","","","","",""
"null"," ","null","html-keyboard-response","365","2.1.0","428092","Mchoho","","","blank","","","","","",""
"460","<span style='font-size: 35px;'>fel</span>","j","html-keyboard-response","366","2.1.0","428554","Mchoho","","","probe","j","congruent","vertical_con_2","true","",""
"null","<div style='font-size: 35px; color: black;'>✘<br>5 garast veszítettél</div>","null","html-keyboard-response","367","2.1.0","429259","Mchoho","","","","","","","","","random_punishment_random"
"null","<div style=""font-size:60px;"">+</div>","null","html-keyboard-response","368","2.1.0","429766","Mchoho","","","fixation","","","","","",""
"null","<span style='font-size: 35px;'>jobb</span><br><span style='font-size: 35px;'>jobb</span><br><span style='font-size: 35px;'>jobb</span>","null","html-keyboard-response","369","2.1.0","429907","Mchoho","","","prime","","","","","",""
"null"," ","null","html-keyboard-response","370","2.1.0","429953","Mchoho","","","blank","","","","","",""
"767","<span style='font-size: 35px;'>jobb</span>","g","html-keyboard-response","371","2.1.0","430721","Mchoho","","","probe","g","congruent","horizontal_con_2","true","",""
"null","<div style='font-size: 35px; color: black; font-weight: bold;'>&#11036</div>","null","html-keyboard-response","372","2.1.0","431434","Mchoho","","","","","","","","","random_punishment_random"
"null","<div style=""font-size:60px;"">+</div>","null","html-keyboard-response","373","2.1.0","431987","Mchoho","","","fixation","","","","","",""
"null","<span style='font-size: 35px;'>fel</span><br><span style='font-size: 35px;'>fel</span><br><span style='font-size: 35px;'>fel</span>","null","html-keyboard-response","374","2.1.0","432126","Mchoho","","","prime","","","","","",""
"null"," ","null","html-keyboard-response","375","2.1.0","432172","Mchoho","","","blank","","","","","",""
"577","<span style='font-size: 35px;'>le</span>","n","html-keyboard-response","376","2.1.0","432751","Mchoho","","","probe","n","incongruent","vertical_incon_1","true","",""
"null","<div style='font-size: 35px; color: black; font-weight: bold;'>&#11036</div>","null","html-keyboard-response","377","2.1.0","433455","Mchoho","","","","","","","","","random_punishment_random"
"null","<div style=""font-size:60px;"">+</div>","null","html-keyboard-response","378","2.1.0","433929","Mchoho","","","fixation","","","","","",""
"null","<span style='font-size: 35px;'>jobb</span><br><span style='font-size: 35px;'>jobb</span><br><span style='font-size: 35px;'>jobb</span>","null","html-keyboard-response","379","2.1.0","434070","Mchoho","","","prime","","","","","",""
"null"," ","null","html-keyboard-response","380","2.1.0","434116","Mchoho","","","blank","","","","","",""
"470","<span style='font-size: 35px;'>jobb</span>","g","html-keyboard-response","381","2.1.0","434587","Mchoho","","","probe","g","congruent","horizontal_con_2","true","",""
"null","<div style='font-size: 35px; color: black;'>✘<br>5 garast veszítettél</div>","null","html-keyboard-response","382","2.1.0","435292","Mchoho","","","","","","","","","random_punishment_random"
"null","<div style=""font-size:60px;"">+</div>","null","html-keyboard-response","383","2.1.0","435725","Mchoho","","","fixation","","","","","",""
"null","<span style='font-size: 35px;'>le</span><br><span style='font-size: 35px;'>le</span><br><span style='font-size: 35px;'>le</span>","null","html-keyboard-response","384","2.1.0","435863","Mchoho","","","prime","","","","","",""
"null"," ","null","html-keyboard-response","385","2.1.0","435908","Mchoho","","","blank","","","","","",""
"450","<span style='font-size: 35px;'>le</span>","n","html-keyboard-response","386","2.1.0","436359","Mchoho","","","probe","n","congruent","vertical_con_1","true","",""
"null","<div style='font-size: 35px; color: black; font-weight: bold;'>&#11036</div>","null","html-keyboard-response","387","2.1.0","437066","Mchoho","","","","","","","","","random_punishment_random"
"null","<div style=""font-size:60px;"">+</div>","null","html-keyboard-response","388","2.1.0","437513","Mchoho","","","fixation","","","","","",""
"null","<span style='font-size: 35px;'>jobb</span><br><span style='font-size: 35px;'>jobb</span><br><span style='font-size: 35px;'>jobb</span>","null","html-keyboard-response","389","2.1.0","437652","Mchoho","","","prime","","","","","",""
"null"," ","null","html-keyboard-response","390","2.1.0","437699","Mchoho","","","blank","","","","","",""
"428","<span style='font-size: 35px;'>jobb</span>","g","html-keyboard-response","391","2.1.0","438128","Mchoho","","","probe","g","congruent","horizontal_con_2","true","",""
"null","<div style='font-size: 35px; color: black; font-weight: bold;'>&#11036</div>","null","html-keyboard-response","392","2.1.0","438841","Mchoho","","","","","","","","","random_punishment_random"
"null","<div style=""font-size:60px;"">+</div>","null","html-keyboard-response","393","2.1.0","439352","Mchoho","","","fixation","","","","","",""
"null","<span style='font-size: 35px;'>le</span><br><span style='font-size: 35px;'>le</span><br><span style='font-size: 35px;'>le</span>","null","html-keyboard-response","394","2.1.0","439490","Mchoho","","","prime","","","","","",""
"null"," ","null","html-keyboard-response","395","2.1.0","439537","Mchoho","","","blank","","","","","",""
"412","<span style='font-size: 35px;'>le</span>","n","html-keyboard-response","396","2.1.0","439949","Mchoho","","","probe","n","congruent","vertical_con_1","true","",""
"null","<div style='font-size: 35px; color: black;'>✘<br>5 garast veszítettél</div>","null","html-keyboard-response","397","2.1.0","440651","Mchoho","","","","","","","","","random_punishment_random"
"null","<div style=""font-size:60px;"">+</div>","null","html-keyboard-response","398","2.1.0","441068","Mchoho","","","fixation","","","","","",""
"null","<span style='font-size: 35px;'>jobb</span><br><span style='font-size: 35px;'>jobb</span><br><span style='font-size: 35px;'>jobb</span>","null","html-keyboard-response","399","2.1.0","441208","Mchoho","","","prime","","","","","",""
"null"," ","null","html-keyboard-response","400","2.1.0","441255","Mchoho","","","blank","","","","","",""
"568","<span style='font-size: 35px;'>bal</span>","f","html-keyboard-response","401","2.1.0","441824","Mchoho","","","probe","f","incongruent","horizontal_incon_2","true","",""
"null","<div style='font-size: 35px; color: black;'>✘<br>5 garast veszítettél</div>","null","html-keyboard-response","402","2.1.0","442528","Mchoho","","","","","","","","","random_punishment_random"
"null","<div style=""font-size:60px;"">+</div>","null","html-keyboard-response","403","2.1.0","443131","Mchoho","","","fixation","","","","","",""
"null","<span style='font-size: 35px;'>fel</span><br><span style='font-size: 35px;'>fel</span><br><span style='font-size: 35px;'>fel</span>","null","html-keyboard-response","404","2.1.0","443272","Mchoho","","","prime","","","","","",""
"null"," ","null","html-keyboard-response","405","2.1.0","443317","Mchoho","","","blank","","","","","",""
"797","<span style='font-size: 35px;'>fel</span>","j","html-keyboard-response","406","2.1.0","444115","Mchoho","","","probe","j","congruent","vertical_con_2","true","",""
"null","<div style='font-size: 35px; color: black;'>✘<br>5 garast veszítettél</div>","null","html-keyboard-response","407","2.1.0","444830","Mchoho","","","","","","","","","random_punishment_random"
"null","<div style=""font-size:60px;"">+</div>","null","html-keyboard-response","408","2.1.0","445388","Mchoho","","","fixation","","","","","",""
"null","<span style='font-size: 35px;'>jobb</span><br><span style='font-size: 35px;'>jobb</span><br><span style='font-size: 35px;'>jobb</span>","null","html-keyboard-response","409","2.1.0","445527","Mchoho","","","prime","","","","","",""
"null"," ","null","html-keyboard-response","410","2.1.0","445573","Mchoho","","","blank","","","","","",""
"670","<span style='font-size: 35px;'>jobb</span>","g","html-keyboard-response","411","2.1.0","446244","Mchoho","","","probe","g","congruent","horizontal_con_2","true","",""
"null","<div style='font-size: 35px; color: black; font-weight: bold;'>&#11036</div>","null","html-keyboard-response","412","2.1.0","446952","Mchoho","","","","","","","","","random_punishment_random"
"null","<div style=""font-size:60px;"">+</div>","null","html-keyboard-response","413","2.1.0","447543","Mchoho","","","fixation","","","","","",""
"null","<span style='font-size: 35px;'>fel</span><br><span style='font-size: 35px;'>fel</span><br><span style='font-size: 35px;'>fel</span>","null","html-keyboard-response","414","2.1.0","447683","Mchoho","","","prime","","","","","",""
"null"," ","null","html-keyboard-response","415","2.1.0","447729","Mchoho","","","blank","","","","","",""
"500","<span style='font-size: 35px;'>fel</span>","j","html-keyboard-response","416","2.1.0","448230","Mchoho","","","probe","j","congruent","vertical_con_2","true","",""
"null","<div style='font-size: 35px; color: black; font-weight: bold;'>&#11036</div>","null","html-keyboard-response","417","2.1.0","448935","Mchoho","","","","","","","","","random_punishment_random"
"null","<div style=""font-size:60px;"">+</div>","null","html-keyboard-response","418","2.1.0","449382","Mchoho","","","fixation","","","","","",""
"null","<span style='font-size: 35px;'>bal</span><br><span style='font-size: 35px;'>bal</span><br><span style='font-size: 35px;'>bal</span>","null","html-keyboard-response","419","2.1.0","449521","Mchoho","","","prime","","","","","",""
"null"," ","null","html-keyboard-response","420","2.1.0","449566","Mchoho","","","blank","","","","","",""
"670","<span style='font-size: 35px;'>bal</span>","f","html-keyboard-response","421","2.1.0","450237","Mchoho","","","probe","f","congruent","horizontal_con_1","true","",""
"null","<div style='font-size: 35px; color: black; font-weight: bold;'>&#11036</div>","null","html-keyboard-response","422","2.1.0","450952","Mchoho","","","","","","","","","random_punishment_random"
"null","<div style=""font-size:60px;"">+</div>","null","html-keyboard-response","423","2.1.0","451406","Mchoho","","","fixation","","","","","",""
"null","<span style='font-size: 35px;'>fel</span><br><span style='font-size: 35px;'>fel</span><br><span style='font-size: 35px;'>fel</span>","null","html-keyboard-response","424","2.1.0","451546","Mchoho","","","prime","","","","","",""
"null"," ","null","html-keyboard-response","425","2.1.0","451592","Mchoho","","","blank","","","","","",""
"476","<span style='font-size: 35px;'>fel</span>","j","html-keyboard-response","426","2.1.0","452069","Mchoho","","","probe","j","congruent","vertical_con_2","true","",""
"null","<div style='font-size: 35px; color: black; font-weight: bold;'>&#11036</div>","null","html-keyboard-response","427","2.1.0","452778","Mchoho","","","","","","","","","random_punishment_random"
"null","<div style=""font-size:60px;"">+</div>","null","html-keyboard-response","428","2.1.0","453337","Mchoho","","","fixation","","","","","",""
"null","<span style='font-size: 35px;'>jobb</span><br><span style='font-size: 35px;'>jobb</span><br><span style='font-size: 35px;'>jobb</span>","null","html-keyboard-response","429","2.1.0","453476","Mchoho","","","prime","","","","","",""
"null"," ","null","html-keyboard-response","430","2.1.0","453523","Mchoho","","","blank","","","","","",""
"666","<span style='font-size: 35px;'>bal</span>","f","html-keyboard-response","431","2.1.0","454189","Mchoho","","","probe","f","incongruent","horizontal_incon_2","true","",""
"null","<div style='font-size: 35px; color: black; font-weight: bold;'>&#11036</div>","null","html-keyboard-response","432","2.1.0","454904","Mchoho","","","","","","","","","random_punishment_random"
"null","<div style=""font-size:60px;"">+</div>","null","html-keyboard-response","433","2.1.0","455369","Mchoho","","","fixation","","","","","",""
"null","<span style='font-size: 35px;'>fel</span><br><span style='font-size: 35px;'>fel</span><br><span style='font-size: 35px;'>fel</span>","null","html-keyboard-response","434","2.1.0","455510","Mchoho","","","prime","","","","","",""
"null"," ","null","html-keyboard-response","435","2.1.0","455557","Mchoho","","","blank","","","","","",""
"678","<span style='font-size: 35px;'>le</span>","n","html-keyboard-response","436","2.1.0","456236","Mchoho","","","probe","n","incongruent","vertical_incon_1","true","",""
"null","<div style='font-size: 35px; color: black; font-weight: bold;'>&#11036</div>","null","html-keyboard-response","437","2.1.0","456942","Mchoho","","","","","","","","","random_punishment_random"
"null","<div style=""font-size:60px;"">+</div>","null","html-keyboard-response","438","2.1.0","457441","Mchoho","","","fixation","","","","","",""
"null","<span style='font-size: 35px;'>jobb</span><br><span style='font-size: 35px;'>jobb</span><br><span style='font-size: 35px;'>jobb</span>","null","html-keyboard-response","439","2.1.0","457582","Mchoho","","","prime","","","","","",""
"null"," ","null","html-keyboard-response","440","2.1.0","457628","Mchoho","","","blank","","","","","",""
"515","<span style='font-size: 35px;'>jobb</span>","g","html-keyboard-response","441","2.1.0","458145","Mchoho","","","probe","g","congruent","horizontal_con_2","true","",""
"null","<div style='font-size: 35px; color: black; font-weight: bold;'>&#11036</div>","null","html-keyboard-response","442","2.1.0","458856","Mchoho","","","","","","","","","random_punishment_random"
"null","<div style=""font-size:60px;"">+</div>","null","html-keyboard-response","443","2.1.0","459451","Mchoho","","","fixation","","","","","",""
"null","<span style='font-size: 35px;'>le</span><br><span style='font-size: 35px;'>le</span><br><span style='font-size: 35px;'>le</span>","null","html-keyboard-response","444","2.1.0","459614","Mchoho","","","prime","","","","","",""
"null"," ","null","html-keyboard-response","445","2.1.0","459659","Mchoho","","","blank","","","","","",""
"799","<span style='font-size: 35px;'>fel</span>","j","html-keyboard-response","446","2.1.0","460459","Mchoho","","","probe","j","incongruent","vertical_incon_2","true","",""
"null","<div style='font-size: 35px; color: black; font-weight: bold;'>&#11036</div>","null","html-keyboard-response","447","2.1.0","461167","Mchoho","","","","","","","","","random_punishment_random"
"null","<div style=""font-size:60px;"">+</div>","null","html-keyboard-response","448","2.1.0","461679","Mchoho","","","fixation","","","","","",""
"null","<span style='font-size: 35px;'>bal</span><br><span style='font-size: 35px;'>bal</span><br><span style='font-size: 35px;'>bal</span>","null","html-keyboard-response","449","2.1.0","461819","Mchoho","","","prime","","","","","",""
"null"," ","null","html-keyboard-response","450","2.1.0","461865","Mchoho","","","blank","","","","","",""
"804","<span style='font-size: 35px;'>jobb</span>","g","html-keyboard-response","451","2.1.0","462670","Mchoho","","","probe","g","incongruent","horizontal_incon_1","true","",""
"null","<div style='font-size: 35px; color: black; font-weight: bold;'>&#11036</div>","null","html-keyboard-response","452","2.1.0","463379","Mchoho","","","","","","","","","random_punishment_random"
"null","<div style=""font-size:60px;"">+</div>","null","html-keyboard-response","453","2.1.0","463879","Mchoho","","","fixation","","","","","",""
"null","<span style='font-size: 35px;'>le</span><br><span style='font-size: 35px;'>le</span><br><span style='font-size: 35px;'>le</span>","null","html-keyboard-response","454","2.1.0","464016","Mchoho","","","prime","","","","","",""
"null"," ","null","html-keyboard-response","455","2.1.0","464064","Mchoho","","","blank","","","","","",""
"647","<span style='font-size: 35px;'>fel</span>","j","html-keyboard-response","456","2.1.0","464711","Mchoho","","","probe","j","incongruent","vertical_incon_2","true","",""
"null","<div style='font-size: 35px; color: black; font-weight: bold;'>&#11036</div>","null","html-keyboard-response","457","2.1.0","465423","Mchoho","","","","","","","","","random_punishment_random"
"null","<div style=""font-size:60px;"">+</div>","null","html-keyboard-response","458","2.1.0","465986","Mchoho","","","fixation","","","","","",""
"null","<span style='font-size: 35px;'>jobb</span><br><span style='font-size: 35px;'>jobb</span><br><span style='font-size: 35px;'>jobb</span>","null","html-keyboard-response","459","2.1.0","466127","Mchoho","","","prime","","","","","",""
"null"," ","null","html-keyboard-response","460","2.1.0","466173","Mchoho","","","blank","","","","","",""
"766","<span style='font-size: 35px;'>bal</span>","f","html-keyboard-response","461","2.1.0","466941","Mchoho","","","probe","f","incongruent","horizontal_incon_2","true","",""
"null","<div style='font-size: 35px; color: black; font-weight: bold;'>&#11036</div>","null","html-keyboard-response","462","2.1.0","467648","Mchoho","","","","","","","","","random_punishment_random"
"null","<div style=""font-size:60px;"">+</div>","null","html-keyboard-response","463","2.1.0","468117","Mchoho","","","fixation","","","","","",""
"null","<span style='font-size: 35px;'>le</span><br><span style='font-size: 35px;'>le</span><br><span style='font-size: 35px;'>le</span>","null","html-keyboard-response","464","2.1.0","468258","Mchoho","","","prime","","","","","",""
"null"," ","null","html-keyboard-response","465","2.1.0","468304","Mchoho","","","blank","","","","","",""
"587","<span style='font-size: 35px;'>fel</span>","j","html-keyboard-response","466","2.1.0","468892","Mchoho","","","probe","j","incongruent","vertical_incon_2","true","",""
"null","<div style='font-size: 35px; color: black; font-weight: bold;'>&#11036</div>","null","html-keyboard-response","467","2.1.0","469602","Mchoho","","","","","","","","","random_punishment_random"
"null","<div style=""font-size:60px;"">+</div>","null","html-keyboard-response","468","2.1.0","470086","Mchoho","","","fixation","","","","","",""
"null","<span style='font-size: 35px;'>jobb</span><br><span style='font-size: 35px;'>jobb</span><br><span style='font-size: 35px;'>jobb</span>","null","html-keyboard-response","469","2.1.0","470225","Mchoho","","","prime","","","","","",""
"null"," ","null","html-keyboard-response","470","2.1.0","470271","Mchoho","","","blank","","","","","",""
"664","<span style='font-size: 35px;'>jobb</span>","g","html-keyboard-response","471","2.1.0","470936","Mchoho","","","probe","g","congruent","horizontal_con_2","true","",""
"null","<div style='font-size: 35px; color: black;'>✘<br>5 garast veszítettél</div>","null","html-keyboard-response","472","2.1.0","471645","Mchoho","","","","","","","","","random_punishment_random"
"null","<div style=""font-size:60px;"">+</div>","null","html-keyboard-response","473","2.1.0","472066","Mchoho","","","fixation","","","","","",""
"null","<span style='font-size: 35px;'>le</span><br><span style='font-size: 35px;'>le</span><br><span style='font-size: 35px;'>le</span>","null","html-keyboard-response","474","2.1.0","472204","Mchoho","","","prime","","","","","",""
"null"," ","null","html-keyboard-response","475","2.1.0","472251","Mchoho","","","blank","","","","","",""
"865","<span style='font-size: 35px;'>fel</span>","j","html-keyboard-response","476","2.1.0","473117","Mchoho","","","probe","j","incongruent","vertical_incon_2","true","",""
"null","<div style='font-size: 35px; color: black; font-weight: bold;'>&#11036</div>","null","html-keyboard-response","477","2.1.0","473828","Mchoho","","","","","","","","","random_punishment_random"
"null","<div style=""font-size:60px;"">+</div>","null","html-keyboard-response","478","2.1.0","474310","Mchoho","","","fixation","","","","","",""
"null","<span style='font-size: 35px;'>bal</span><br><span style='font-size: 35px;'>bal</span><br><span style='font-size: 35px;'>bal</span>","null","html-keyboard-response","479","2.1.0","474450","Mchoho","","","prime","","","","","",""
"null"," ","null","html-keyboard-response","480","2.1.0","474496","Mchoho","","","blank","","","","","",""
"649","<span style='font-size: 35px;'>bal</span>","f","html-keyboard-response","481","2.1.0","475145","Mchoho","","","probe","f","congruent","horizontal_con_1","true","",""
"null","<div style='font-size: 35px; color: black; font-weight: bold;'>&#11036</div>","null","html-keyboard-response","482","2.1.0","475860","Mchoho","","","","","","","","","random_punishment_random"
"null","<div style=""font-size:60px;"">+</div>","null","html-keyboard-response","483","2.1.0","476330","Mchoho","","","fixation","","","","","",""
"null","<span style='font-size: 35px;'>le</span><br><span style='font-size: 35px;'>le</span><br><span style='font-size: 35px;'>le</span>","null","html-keyboard-response","484","2.1.0","476468","Mchoho","","","prime","","","","","",""
"null"," ","null","html-keyboard-response","485","2.1.0","476515","Mchoho","","","blank","","","","","",""
"724","<span style='font-size: 35px;'>fel</span>","j","html-keyboard-response","486","2.1.0","477240","Mchoho","","","probe","j","incongruent","vertical_incon_2","true","",""
"null","<div style='font-size: 35px; color: black; font-weight: bold;'>&#11036</div>","null","html-keyboard-response","487","2.1.0","477948","Mchoho","","","","","","","","","random_punishment_random"
"null","<div style=""font-size:60px;"">+</div>","null","html-keyboard-response","488","2.1.0","478381","Mchoho","","","fixation","","","","","",""
"null","<span style='font-size: 35px;'>bal</span><br><span style='font-size: 35px;'>bal</span><br><span style='font-size: 35px;'>bal</span>","null","html-keyboard-response","489","2.1.0","478521","Mchoho","","","prime","","","","","",""
"null"," ","null","html-keyboard-response","490","2.1.0","478567","Mchoho","","","blank","","","","","",""
"729","<span style='font-size: 35px;'>jobb</span>","g","html-keyboard-response","491","2.1.0","479297","Mchoho","","","probe","g","incongruent","horizontal_incon_1","true","",""
"null","<div style='font-size: 35px; color: black; font-weight: bold;'>&#11036</div>","null","html-keyboard-response","492","2.1.0","480014","Mchoho","","","","","","","","","random_punishment_random"
"null","<div style=""font-size:60px;"">+</div>","null","html-keyboard-response","493","2.1.0","480436","Mchoho","","","fixation","","","","","",""
"null","<span style='font-size: 35px;'>fel</span><br><span style='font-size: 35px;'>fel</span><br><span style='font-size: 35px;'>fel</span>","null","html-keyboard-response","494","2.1.0","480577","Mchoho","","","prime","","","","","",""
"null"," ","null","html-keyboard-response","495","2.1.0","480623","Mchoho","","","blank","","","","","",""
"508","<span style='font-size: 35px;'>le</span>","n","html-keyboard-response","496","2.1.0","481132","Mchoho","","","probe","n","incongruent","vertical_incon_1","true","",""
"null","<div style='font-size: 35px; color: black; font-weight: bold;'>&#11036</div>","null","html-keyboard-response","497","2.1.0","481834","Mchoho","","","","","","","","","random_punishment_random"
"null","<div style=""font-size:60px;"">+</div>","null","html-keyboard-response","498","2.1.0","482290","Mchoho","","","fixation","","","","","",""
"null","<span style='font-size: 35px;'>jobb</span><br><span style='font-size: 35px;'>jobb</span><br><span style='font-size: 35px;'>jobb</span>","null","html-keyboard-response","499","2.1.0","482430","Mchoho","","","prime","","","","","",""
"null"," ","null","html-keyboard-response","500","2.1.0","482476","Mchoho","","","blank","","","","","",""
"604","<span style='font-size: 35px;'>bal</span>","f","html-keyboard-response","501","2.1.0","483081","Mchoho","","","probe","f","incongruent","horizontal_incon_2","true","",""
"null","<div style='font-size: 35px; color: black;'>✘<br>5 garast veszítettél</div>","null","html-keyboard-response","502","2.1.0","483793","Mchoho","","","","","","","","","random_punishment_random"
"null","<div style=""font-size:60px;"">+</div>","null","html-keyboard-response","503","2.1.0","484284","Mchoho","","","fixation","","","","","",""
"null","<span style='font-size: 35px;'>fel</span><br><span style='font-size: 35px;'>fel</span><br><span style='font-size: 35px;'>fel</span>","null","html-keyboard-response","504","2.1.0","484425","Mchoho","","","prime","","","","","",""
"null"," ","null","html-keyboard-response","505","2.1.0","484471","Mchoho","","","blank","","","","","",""
"597","<span style='font-size: 35px;'>le</span>","n","html-keyboard-response","506","2.1.0","485069","Mchoho","","","probe","n","incongruent","vertical_incon_1","true","",""
"null","<div style='font-size: 35px; color: black; font-weight: bold;'>&#11036</div>","null","html-keyboard-response","507","2.1.0","485782","Mchoho","","","","","","","","","random_punishment_random"
"null","<div style=""font-size:60px;"">+</div>","null","html-keyboard-response","508","2.1.0","486346","Mchoho","","","fixation","","","","","",""
"null","<span style='font-size: 35px;'>bal</span><br><span style='font-size: 35px;'>bal</span><br><span style='font-size: 35px;'>bal</span>","null","html-keyboard-response","509","2.1.0","486483","Mchoho","","","prime","","","","","",""
"null"," ","null","html-keyboard-response","510","2.1.0","486529","Mchoho","","","blank","","","","","",""
"571","<span style='font-size: 35px;'>bal</span>","f","html-keyboard-response","511","2.1.0","487101","Mchoho","","","probe","f","congruent","horizontal_con_1","true","",""
"null","<div style='font-size: 35px; color: black;'>✘<br>5 garast veszítettél</div>","null","html-keyboard-response","512","2.1.0","487814","Mchoho","","","","","","","","","random_punishment_random"
"null","<div style=""font-size:60px;"">+</div>","null","html-keyboard-response","513","2.1.0","488252","Mchoho","","","fixation","","","","","",""
"null","<span style='font-size: 35px;'>fel</span><br><span style='font-size: 35px;'>fel</span><br><span style='font-size: 35px;'>fel</span>","null","html-keyboard-response","514","2.1.0","488391","Mchoho","","","prime","","","","","",""
"null"," ","null","html-keyboard-response","515","2.1.0","488437","Mchoho","","","blank","","","","","",""
"645","<span style='font-size: 35px;'>le</span>","n","html-keyboard-response","516","2.1.0","489083","Mchoho","","","probe","n","incongruent","vertical_incon_1","true","",""
"null","<div style='font-size: 35px; color: black; font-weight: bold;'>&#11036</div>","null","html-keyboard-response","517","2.1.0","489787","Mchoho","","","","","","","","","random_punishment_random"
"null","<div style=""font-size:60px;"">+</div>","null","html-keyboard-response","518","2.1.0","490336","Mchoho","","","fixation","","","","","",""
"null","<span style='font-size: 35px;'>bal</span><br><span style='font-size: 35px;'>bal</span><br><span style='font-size: 35px;'>bal</span>","null","html-keyboard-response","519","2.1.0","490475","Mchoho","","","prime","","","","","",""
"null"," ","null","html-keyboard-response","520","2.1.0","490522","Mchoho","","","blank","","","","","",""
"560","<span style='font-size: 35px;'>jobb</span>","g","html-keyboard-response","521","2.1.0","491083","Mchoho","","","probe","g","incongruent","horizontal_incon_1","true","",""
"null","<div style='font-size: 35px; color: black; font-weight: bold;'>&#11036</div>","null","html-keyboard-response","522","2.1.0","491794","Mchoho","","","","","","","","","random_punishment_random"
"null","<div style=""font-size:60px;"">+</div>","null","html-keyboard-response","523","2.1.0","492380","Mchoho","","","fixation","","","","","",""
"null","<span style='font-size: 35px;'>fel</span><br><span style='font-size: 35px;'>fel</span><br><span style='font-size: 35px;'>fel</span>","null","html-keyboard-response","524","2.1.0","492520","Mchoho","","","prime","","","","","",""
"null"," ","null","html-keyboard-response","525","2.1.0","492566","Mchoho","","","blank","","","","","",""
"448","<span style='font-size: 35px;'>fel</span>","j","html-keyboard-response","526","2.1.0","493015","Mchoho","","","probe","j","congruent","vertical_con_2","true","",""
"null","<div style='font-size: 35px; color: black; font-weight: bold;'>&#11036</div>","null","html-keyboard-response","527","2.1.0","493720","Mchoho","","","","","","","","","random_punishment_random"
"null","<div style=""font-size:60px;"">+</div>","null","html-keyboard-response","528","2.1.0","494324","Mchoho","","","fixation","","","","","",""
"null","<span style='font-size: 35px;'>bal</span><br><span style='font-size: 35px;'>bal</span><br><span style='font-size: 35px;'>bal</span>","null","html-keyboard-response","529","2.1.0","494466","Mchoho","","","prime","","","","","",""
"null"," ","null","html-keyboard-response","530","2.1.0","494513","Mchoho","","","blank","","","","","",""
"619","<span style='font-size: 35px;'>bal</span>","f","html-keyboard-response","531","2.1.0","495133","Mchoho","","","probe","f","congruent","horizontal_con_1","true","",""
"null","<div style='font-size: 35px; color: black; font-weight: bold;'>&#11036</div>","null","html-keyboard-response","532","2.1.0","495845","Mchoho","","","","","","","","","random_punishment_random"
"null","<div style=""font-size:60px;"">+</div>","null","html-keyboard-response","533","2.1.0","496327","Mchoho","","","fixation","","","","","",""
"null","<span style='font-size: 35px;'>le</span><br><span style='font-size: 35px;'>le</span><br><span style='font-size: 35px;'>le</span>","null","html-keyboard-response","534","2.1.0","496467","Mchoho","","","prime","","","","","",""
"null"," ","null","html-keyboard-response","535","2.1.0","496513","Mchoho","","","blank","","","","","",""
"436","<span style='font-size: 35px;'>le</span>","n","html-keyboard-response","536","2.1.0","496950","Mchoho","","","probe","n","congruent","vertical_con_1","true","",""
"null","<div style='font-size: 35px; color: black; font-weight: bold;'>&#11036</div>","null","html-keyboard-response","537","2.1.0","497664","Mchoho","","","","","","","","","random_punishment_random"
"null","<div style=""font-size:60px;"">+</div>","null","html-keyboard-response","538","2.1.0","498102","Mchoho","","","fixation","","","","","",""
"null","<span style='font-size: 35px;'>jobb</span><br><span style='font-size: 35px;'>jobb</span><br><span style='font-size: 35px;'>jobb</span>","null","html-keyboard-response","539","2.1.0","498241","Mchoho","","","prime","","","","","",""
"null"," ","null","html-keyboard-response","540","2.1.0","498287","Mchoho","","","blank","","","","","",""
"756","<span style='font-size: 35px;'>bal</span>","f","html-keyboard-response","541","2.1.0","499044","Mchoho","","","probe","f","incongruent","horizontal_incon_2","true","",""
"null","<div style='font-size: 35px; color: black;'>✘<br>5 garast veszítettél</div>","null","html-keyboard-response","542","2.1.0","499752","Mchoho","","","","","","","","","random_punishment_random"
"null","<div style=""font-size:60px;"">+</div>","null","html-keyboard-response","543","2.1.0","500246","Mchoho","","","fixation","","","","","",""
"null","<span style='font-size: 35px;'>le</span><br><span style='font-size: 35px;'>le</span><br><span style='font-size: 35px;'>le</span>","null","html-keyboard-response","544","2.1.0","500388","Mchoho","","","prime","","","","","",""
"null"," ","null","html-keyboard-response","545","2.1.0","500434","Mchoho","","","blank","","","","","",""
"496","<span style='font-size: 35px;'>le</span>","n","html-keyboard-response","546","2.1.0","500931","Mchoho","","","probe","n","congruent","vertical_con_1","true","",""
"null","<div style='font-size: 35px; color: black; font-weight: bold;'>&#11036</div>","null","html-keyboard-response","547","2.1.0","501637","Mchoho","","","","","","","","","random_punishment_random"
"null","<div style=""font-size:60px;"">+</div>","null","html-keyboard-response","548","2.1.0","502241","Mchoho","","","fixation","","","","","",""
"null","<span style='font-size: 35px;'>bal</span><br><span style='font-size: 35px;'>bal</span><br><span style='font-size: 35px;'>bal</span>","null","html-keyboard-response","549","2.1.0","502381","Mchoho","","","prime","","","","","",""
"null"," ","null","html-keyboard-response","550","2.1.0","502427","Mchoho","","","blank","","","","","",""
"674","<span style='font-size: 35px;'>jobb</span>","g","html-keyboard-response","551","2.1.0","503102","Mchoho","","","probe","g","incongruent","horizontal_incon_1","true","",""
"null","<div style='font-size: 35px; color: black; font-weight: bold;'>&#11036</div>","null","html-keyboard-response","552","2.1.0","503817","Mchoho","","","","","","","","","random_punishment_random"
"null","<div style=""font-size:60px;"">+</div>","null","html-keyboard-response","553","2.1.0","504242","Mchoho","","","fixation","","","","","",""
"null","<span style='font-size: 35px;'>fel</span><br><span style='font-size: 35px;'>fel</span><br><span style='font-size: 35px;'>fel</span>","null","html-keyboard-response","554","2.1.0","504381","Mchoho","","","prime","","","","","",""
"null"," ","null","html-keyboard-response","555","2.1.0","504426","Mchoho","","","blank","","","","","",""
"768","<span style='font-size: 35px;'>fel</span>","j","html-keyboard-response","556","2.1.0","505195","Mchoho","","","probe","j","congruent","vertical_con_2","true","",""
"null","<div style='font-size: 35px; color: black; font-weight: bold;'>&#11036</div>","null","html-keyboard-response","557","2.1.0","505911","Mchoho","","","","","","","","","random_punishment_random"
"null","<div style=""font-size:60px;"">+</div>","null","html-keyboard-response","558","2.1.0","506423","Mchoho","","","fixation","","","","","",""
"null","<span style='font-size: 35px;'>jobb</span><br><span style='font-size: 35px;'>jobb</span><br><span style='font-size: 35px;'>jobb</span>","null","html-keyboard-response","559","2.1.0","506561","Mchoho","","","prime","","","","","",""
"null"," ","null","html-keyboard-response","560","2.1.0","506607","Mchoho","","","blank","","","","","",""
"438","<span style='font-size: 35px;'>jobb</span>","g","html-keyboard-response","561","2.1.0","507046","Mchoho","","","probe","g","congruent","horizontal_con_2","true","",""
"null","<div style='font-size: 35px; color: black;'>✘<br>5 garast veszítettél</div>","null","html-keyboard-response","562","2.1.0","507758","Mchoho","","","","","","","","","random_punishment_random"
"null","<div style=""font-size:60px;"">+</div>","null","html-keyboard-response","563","2.1.0","508190","Mchoho","","","fixation","","","","","",""
"null","<span style='font-size: 35px;'>fel</span><br><span style='font-size: 35px;'>fel</span><br><span style='font-size: 35px;'>fel</span>","null","html-keyboard-response","564","2.1.0","508329","Mchoho","","","prime","","","","","",""
"null"," ","null","html-keyboard-response","565","2.1.0","508374","Mchoho","","","blank","","","","","",""
"599","<span style='font-size: 35px;'>le</span>","n","html-keyboard-response","566","2.1.0","508974","Mchoho","","","probe","n","incongruent","vertical_incon_1","true","",""
"null","<div style='font-size: 35px; color: black; font-weight: bold;'>&#11036</div>","null","html-keyboard-response","567","2.1.0","509690","Mchoho","","","","","","","","","random_punishment_random"
"null","<div style=""font-size:60px;"">+</div>","null","html-keyboard-response","568","2.1.0","510240","Mchoho","","","fixation","","","","","",""
"null","<span style='font-size: 35px;'>jobb</span><br><span style='font-size: 35px;'>jobb</span><br><span style='font-size: 35px;'>jobb</span>","null","html-keyboard-response","569","2.1.0","510379","Mchoho","","","prime","","","","","",""
"null"," ","null","html-keyboard-response","570","2.1.0","510425","Mchoho","","","blank","","","","","",""
"549","<span style='font-size: 35px;'>jobb</span>","g","html-keyboard-response","571","2.1.0","510974","Mchoho","","","probe","g","congruent","horizontal_con_2","true","",""
"null","<div style='font-size: 35px; color: black; font-weight: bold;'>&#11036</div>","null","html-keyboard-response","572","2.1.0","511683","Mchoho","","","","","","","","","random_punishment_random"
"null","<div style=""font-size:60px;"">+</div>","null","html-keyboard-response","573","2.1.0","512209","Mchoho","","","fixation","","","","","",""
"null","<span style='font-size: 35px;'>le</span><br><span style='font-size: 35px;'>le</span><br><span style='font-size: 35px;'>le</span>","null","html-keyboard-response","574","2.1.0","512346","Mchoho","","","prime","","","","","",""
"null"," ","null","html-keyboard-response","575","2.1.0","512392","Mchoho","","","blank","","","","","",""
"478","<span style='font-size: 35px;'>fel</span>","j","html-keyboard-response","576","2.1.0","512871","Mchoho","","","probe","j","incongruent","vertical_incon_2","true","",""
"null","<div style='font-size: 35px; color: black;'>✘<br>5 garast veszítettél</div>","null","html-keyboard-response","577","2.1.0","513582","Mchoho","","","","","","","","","random_punishment_random"
"null","<div style=""font-size:60px;"">+</div>","null","html-keyboard-response","578","2.1.0","514155","Mchoho","","","fixation","","","","","",""
"null","<span style='font-size: 35px;'>bal</span><br><span style='font-size: 35px;'>bal</span><br><span style='font-size: 35px;'>bal</span>","null","html-keyboard-response","579","2.1.0","514294","Mchoho","","","prime","","","","","",""
"null"," ","null","html-keyboard-response","580","2.1.0","514340","Mchoho","","","blank","","","","","",""
"817","<span style='font-size: 35px;'>jobb</span>","n","html-keyboard-response","581","2.1.0","515157","Mchoho","","","probe","g","incongruent","horizontal_incon_1","false","",""
"null","<div style='font-size: 35px; color: black; font-weight: bold;'>&#11036</div>","null","html-keyboard-response","582","2.1.0","515862","Mchoho","","","","","","","","","random_punishment_random"
"null","<div style=""font-size:60px;"">+</div>","null","html-keyboard-response","583","2.1.0","516457","Mchoho","","","fixation","","","","","",""
"null","<span style='font-size: 35px;'>fel</span><br><span style='font-size: 35px;'>fel</span><br><span style='font-size: 35px;'>fel</span>","null","html-keyboard-response","584","2.1.0","516595","Mchoho","","","prime","","","","","",""
"null"," ","null","html-keyboard-response","585","2.1.0","516641","Mchoho","","","blank","","","","","",""
"813","<span style='font-size: 35px;'>le</span>","n","html-keyboard-response","586","2.1.0","517454","Mchoho","","","probe","n","incongruent","vertical_incon_1","true","",""
"null","<div style='font-size: 35px; color: black; font-weight: bold;'>&#11036</div>","null","html-keyboard-response","587","2.1.0","518163","Mchoho","","","","","","","","","random_punishment_random"
"null","<div style=""font-size:60px;"">+</div>","null","html-keyboard-response","588","2.1.0","518581","Mchoho","","","fixation","","","","","",""
"null","<span style='font-size: 35px;'>bal</span><br><span style='font-size: 35px;'>bal</span><br><span style='font-size: 35px;'>bal</span>","null","html-keyboard-response","589","2.1.0","518722","Mchoho","","","prime","","","","","",""
"null"," ","null","html-keyboard-response","590","2.1.0","518768","Mchoho","","","blank","","","","","",""
"594","<span style='font-size: 35px;'>jobb</span>","g","html-keyboard-response","591","2.1.0","519363","Mchoho","","","probe","g","incongruent","horizontal_incon_1","true","",""
